loggingTime(txt),loggingSample(N),locationTimestamp_since1970(s),locationLatitude(WGS84),locationLongitude(WGS84),locationAltitude(m),locationSpeed(m/s),locationSpeedAccuracy(m/s),locationCourse(°),locationCourseAccuracy(°),locationVerticalAccuracy(m),locationHorizontalAccuracy(m),locationFloor(Z),locationHeadingTimestamp_since1970(s),locationHeadingX(µT),locationHeadingY(µT),locationHeadingZ(µT),locationTrueHeading(°),locationMagneticHeading(°),locationHeadingAccuracy(°),accelerometerTimestamp_sinceReboot(s),accelerometerAccelerationX(G),accelerometerAccelerationY(G),accelerometerAccelerationZ(G),gyroTimestamp_sinceReboot(s),gyroRotationX(rad/s),gyroRotationY(rad/s),gyroRotationZ(rad/s),magnetometerTimestamp_sinceReboot(s),magnetometerX(µT),magnetometerY(µT),magnetometerZ(µT),motionTimestamp_sinceReboot(s),motionYaw(rad),motionRoll(rad),motionPitch(rad),motionRotationRateX(rad/s),motionRotationRateY(rad/s),motionRotationRateZ(rad/s),motionUserAccelerationX(G),motionUserAccelerationY(G),motionUserAccelerationZ(G),motionAttitudeReferenceFrame(txt),motionQuaternionX(R),motionQuaternionY(R),motionQuaternionZ(R),motionQuaternionW(R),motionGravityX(G),motionGravityY(G),motionGravityZ(G),motionMagneticFieldX(µT),motionMagneticFieldY(µT),motionMagneticFieldZ(µT),motionHeading(°),motionMagneticFieldCalibrationAccuracy(Z),activityTimestamp_sinceReboot(s),activity(txt),activityActivityConfidence(Z),activityActivityStartDate(txt),pedometerStartDate(txt),pedometerNumberofSteps(N),pedometerAverageActivePace(s/m),pedometerCurrentPace(s/m),pedometerCurrentCadence(steps/s),pedometerDistance(m),pedometerFloorAscended(N),pedometerFloorDescended(N),pedometerEndDate(txt),altimeterTimestamp_sinceReboot(s),altimeterReset(bool),altimeterRelativeAltitude(m),altimeterPressure(kPa),IP_Timestamp_since1970(s),IP_en0(txt),IP_pdp_ip0(txt),deviceID(txt),deviceOrientationTimeStamp_since1970(s),deviceOrientation(Z),batteryTimeStamp_since1970(s),batteryState(R),batteryLevel(Z),label(N)
2025-05-14T21:35:39.468+09:00,1,1747226136.588171,35.65715016444047,139.701000684363,27.74336,-1,-1,-1,-1,30,37.08792774218872,-9999,1747226139.448842,-2.230514526367188,-8.988334655761719,-13.84522247314453,86.59104156494141,94.55965423583984,14.23998928070068,67180.68955129167,0.04949951171875,-0.4681854248046875,-0.9182586669921875,67180.68456329167,0.005054946057498455,0.01440423913300037,-0.009941580705344677,67180.66274829167,59.53239440917969,-58.11427307128906,-133.8466033935547,67180.64340629167,0.3663558047445244,0.08638492011936821,0.4930414854305418,-0.07936625927686691,0.1119544878602028,-0.03079820796847343,0.01159906387329102,-0.009862393140792847,0.03023111820220947,XArbitraryCorrectedZVertical,0.2320973910810083,0.0855831916946443,0.186844186965275,0.9507342240690231,0.07600164413452148,-0.4733073115348816,-0.8776126503944397,-2.21600341796875,-9.035865783691406,-13.60735321044922,-1,2,67166.617800625,unknown,2,2025-05-14T21:35:25.400+09:00,2025-05-14T21:29:57.482+09:00,149,1.61171,0,0,105.3387,0,0,2025-05-14T21:34:34.323+09:00,67178.777196,0,-0.1109772,101.6852,1747226139.460134,0.0.0.0,192.0.0.2,my_iOS_device,0,1,1747226139.453125,1,0.4,0
2025-05-14T21:35:39.503+09:00,2,1747226136.588171,35.65715016444047,139.701000684363,27.74336,-1,-1,-1,-1,30,37.08792774218872,-9999,1747226139.488561,-2.193740844726562,-8.9775390625,-13.83071136474609,86.62103271484375,94.58964538574219,14.24008655548096,67180.72322529167,0.0565338134765625,-0.457000732421875,-0.89520263671875,67180.71823629166,0.1270817816257477,0.1697248518466949,-0.02582467347383499,67180.72338729167,59.77046203613281,-58.18930053710938,-133.7414093017578,67180.70327029168,0.364637470159964,0.08521493952012704,0.4920537175040984,0.07643754780292511,0.1329463124275208,-0.02921714819967747,-0.03065726161003113,-0.004247754812240601,-0.03617072105407715,XArbitraryCorrectedZVertical,0.2318080560594259,0.08474573396248368,0.185893158353935,0.9510662831358471,0.07501455396413803,-0.4724369645118713,-0.8781663775444031,-2.193740844726562,-8.9775390625,-13.83071136474609,-1,2,67166.617800625,unknown,2,2025-05-14T21:35:25.400+09:00,2025-05-14T21:29:57.482+09:00,149,1.61171,0,0,105.3387,0,0,2025-05-14T21:34:34.323+09:00,67178.777196,0,-0.1109772,101.6852,1747226139.460134,0.0.0.0,192.0.0.2,my_iOS_device,0,1,1747226139.453125,1,0.4,0
2025-05-14T21:35:39.539+09:00,3,1747226136.588171,35.65715016444047,139.701000684363,27.74336,-1,-1,-1,-1,30,37.08792774218872,-9999,1747226139.528685,-2.188880920410156,-8.913192749023438,-13.48642730712891,86.61698913574219,94.58560180664062,14.24019622802734,67180.75689929166,0.0210723876953125,-0.4894256591796875,-0.859130859375,67180.75191029167,0.1730543375015259,0.07953424006700516,-0.06991890072822571,67180.75370629167,59.37333679199219,-57.98126220703125,-133.5149841308594,67180.70327029168,0.364637470159964,0.08521493952012704,0.4920537175040984,0.07643754780292511,0.1329463124275208,-0.02921714819967747,-0.03065726161003113,-0.004247754812240601,-0.03617072105407715,XArbitraryCorrectedZVertical,0.2318080560594259,0.08474573396248368,0.185893158353935,0.9510662831358471,0.07501455396413803,-0.4724369645118713,-0.8781663775444031,-2.193740844726562,-8.9775390625,-13.83071136474609,-1,2,67166.617800625,unknown,2,2025-05-14T21:35:25.400+09:00,2025-05-14T21:29:57.482+09:00,149,1.61171,0,0,105.3387,0,0,2025-05-14T21:34:34.323+09:00,67178.777196,0,-0.1109772,101.6852,1747226139.460134,0.0.0.0,192.0.0.2,my_iOS_device,0,1,1747226139.453125,1,0.4,0
2025-05-14T21:35:39.573+09:00,4,1747226136.588171,35.65715016444047,139.701000684363,27.74336,-1,-1,-1,-1,30,37.08792774218872,-9999,1747226139.568586,-2.240222930908203,-8.915870666503906,-13.29407501220703,86.79311370849609,94.76172637939453,14.24030017852783,67180.79057329167,0.0183258056640625,-0.454376220703125,-0.834136962890625,67180.78558429168,0.09674865007400513,0.02433596551418304,-0.108257494866848,67180.78402829167,59.57194519042969,-58.02786254882812,-133.2373352050781,67180.76313529167,0.3611086637591613,0.09415788726965123,0.5004756396293468,0.1552842259407043,0.04352114349603653,-0.07868117094039917,-0.06129337847232819,-0.01074254512786865,0.01372700929641724,XArbitraryCorrectedZVertical,0.2351511241537011,0.08927420753076422,0.185253632953798,0.9499553881819045,0.08248782902956009,-0.4798429012298584,-0.8734681010246277,-2.338390350341797,-8.953815460205078,-13.49706268310547,-1,2,67166.617800625,unknown,2,2025-05-14T21:35:25.400+09:00,2025-05-14T21:29:57.482+09:00,149,1.61171,0,0,105.3387,0,0,2025-05-14T21:34:34.323+09:00,67178.777196,0,-0.1109772,101.6852,1747226139.460134,0.0.0.0,192.0.0.2,my_iOS_device,0,1,1747226139.453125,1,0.4,0
2025-05-14T21:35:39.603+09:00,5,1747226136.588171,35.65715016444047,139.701000684363,27.74336,-1,-1,-1,-1,30,37.08792774218872,-9999,1747226139.588553,-2.178798675537109,-9.0938720703125,-13.56223297119141,86.95386505126953,94.92247772216797,14.24033546447754,67180.82424629167,-0.0012054443359375,-0.4618988037109375,-0.85101318359375,67180.81925729167,0.04147074371576309,0.1566271632909775,-0.2461048513650894,67180.81434829166,59.53787231445312,-58.21757507324219,-133.4873809814453,67180.76313529167,0.3611086637591613,0.09415788726965123,0.5004756396293468,0.1552842259407043,0.04352114349603653,-0.07868117094039917,-0.06129337847232819,-0.01074254512786865,0.01372700929641724,XArbitraryCorrectedZVertical,0.2351511241537011,0.08927420753076422,0.185253632953798,0.9499553881819045,0.08248782902956009,-0.4798429012298584,-0.8734681010246277,-2.338390350341797,-8.953815460205078,-13.49706268310547,-1,2,67166.617800625,unknown,2,2025-05-14T21:35:25.400+09:00,2025-05-14T21:29:57.482+09:00,149,1.61171,0,0,105.3387,0,0,2025-05-14T21:34:34.323+09:00,67178.777196,0,-0.1109772,101.6852,1747226139.460134,0.0.0.0,192.0.0.2,my_iOS_device,0,1,1747226139.453125,1,0.4,0
2025-05-14T21:35:39.638+09:00,6,1747226136.588171,35.65715016444047,139.701000684363,27.74336,-1,-1,-1,-1,30,37.08792774218872,-9999,1747226139.628497,-2.071201324462891,-9.214462280273438,-13.48662567138672,87.50418853759766,95.47280120849609,14.24038028717041,67180.85792029167,0.037261962890625,-0.463134765625,-0.8336334228515625,67180.85293129167,0.1679048538208008,0.1649359613656998,-0.3647585213184357,67180.84466429167,59.80012512207031,-58.38784790039062,-133.4249114990234,67180.82299929167,0.3505933475368385,0.1036193442142545,0.5045701918738386,0.04771440476179123,0.1493318527936935,-0.2588247358798981,-0.09344348311424255,0.02029633522033691,0.01225817203521729,XArbitraryCorrectedZVertical,0.2367164359891961,0.09285356631257161,0.1813816334577915,0.9499707394774028,0.09054431319236755,-0.4834312498569489,-0.8706870675086975,-2.239444732666016,-9.097946166992188,-13.54036712646484,-1,2,67166.617800625,unknown,2,2025-05-14T21:35:25.400+09:00,2025-05-14T21:29:57.482+09:00,149,1.61171,0,0,105.3387,0,0,2025-05-14T21:34:34.323+09:00,67178.777196,0,-0.1109772,101.6852,1747226139.460134,0.0.0.0,192.0.0.2,my_iOS_device,0,1,1747226139.453125,1,0.4,0
2025-05-14T21:35:39.673+09:00,7,1747226136.588171,35.65715016444047,139.701000684363,27.74336,-1,-1,-1,-1,30,37.08792774218872,-9999,1747226139.668313,-1.946403503417969,-9.118255615234375,-13.38474273681641,88.34263610839844,96.31124877929688,14.24037265777588,67180.89159429166,0.071258544921875,-0.4586944580078125,-0.7465972900390625,67180.88660529167,0.2795389592647552,0.1174954697489738,-0.4030475914478302,67180.87497729166,59.96366882324219,-58.20521545410156,-133.3251647949219,67180.88286329167,0.3251497136432666,0.1253341257013448,0.5114586508976489,0.2606734037399292,0.1196668371558189,-0.4096757173538208,-0.04881346225738525,0.02689468860626221,0.07647979259490967,XArbitraryCorrectedZVertical,0.2393186249425564,0.1006526272231387,0.1719208397319378,0.9502837240001469,0.1090093925595284,-0.4894497692584991,-0.8651912808418274,-1.876743316650391,-9.089218139648438,-13.41506195068359,-1,2,67166.617800625,unknown,2,2025-05-14T21:35:25.400+09:00,2025-05-14T21:29:57.482+09:00,149,1.61171,0,0,105.3387,0,0,2025-05-14T21:34:34.323+09:00,67178.777196,0,-0.1109772,101.6852,1747226139.460134,0.0.0.0,192.0.0.2,my_iOS_device,0,1,1747226139.453125,1,0.4,0
2025-05-14T21:35:39.708+09:00,8,1747226136.588171,35.65715016444047,139.701000684363,27.74336,-1,-1,-1,-1,30,37.08792774218872,-9999,1747226139.688323,-1.938053131103516,-9.135536193847656,-13.24031829833984,88.78092956542969,96.74954223632812,14.24028587341309,67180.92526829167,0.038299560546875,-0.4220428466796875,-0.785369873046875,67180.92027929168,0.8180953860282898,0.8445096611976624,-0.3836342096328735,67180.90529129167,59.82150268554688,-58.2684326171875,-133.1081085205078,67180.88286329167,0.3251497136432666,0.1253341257013448,0.5114586508976489,0.2606734037399292,0.1196668371558189,-0.4096757173538208,-0.04881346225738525,0.02689468860626221,0.07647979259490967,XArbitraryCorrectedZVertical,0.2393186249425564,0.1006526272231387,0.1719208397319378,0.9502837240001469,0.1090093925595284,-0.4894497692584991,-0.8651912808418274,-1.876743316650391,-9.089218139648438,-13.41506195068359,-1,2,67166.617800625,unknown,2,2025-05-14T21:35:25.400+09:00,2025-05-14T21:29:57.482+09:00,149,1.61171,0,0,105.3387,0,0,2025-05-14T21:34:34.323+09:00,67178.777196,0,-0.1109772,101.6852,1747226139.460134,0.0.0.0,192.0.0.2,my_iOS_device,0,1,1747226139.453125,1,0.4,0
2025-05-14T21:35:39.740+09:00,9,1747226136.588171,35.65715016444047,139.701000684363,27.74336,-1,-1,-1,-1,30,37.08792774218872,-9999,1747226139.728217,-1.053031921386719,-9.735469818115234,-12.89882659912109,88.81947326660156,96.7880859375,14.23910617828369,67180.95894129167,0.0304718017578125,-0.549285888671875,-0.7092742919921875,67180.95395229167,0.7012814283370972,3.098179817199707,-0.4252668619155884,67180.93560629168,60.50541687011719,-58.93460083007812,-132.8958892822266,67180.94272829167,0.2927065783804499,0.1895900420335153,0.5465542942028676,0.8956260681152344,2.618244886398315,-0.3506247401237488,-0.1402348577976227,0.08203279972076416,-0.0172039270401001,XArbitraryCorrectedZVertical,0.252513202329304,0.1293478110068763,0.1650620265153291,0.9445956788287083,0.1610020846128464,-0.5197466015815735,-0.8390124440193176,-1.358394622802734,-9.681606292724609,-12.94901275634766,-1,2,67166.617800625,unknown,2,2025-05-14T21:35:25.400+09:00,2025-05-14T21:29:57.482+09:00,149,1.61171,0,0,105.3387,0,0,2025-05-14T21:34:34.323+09:00,67178.777196,0,-0.1109772,101.6852,1747226139.460134,0.0.0.0,192.0.0.2,my_iOS_device,0,1,1747226139.453125,1,0.4,0
2025-05-14T21:35:39.773+09:00,10,1747226136.588171,35.65715016444047,139.701000684363,27.74336,-1,-1,-1,-1,30,37.08792774218872,-9999,1747226139.767945,0.5141220092773438,-9.752101898193359,-12.869873046875,88.25856018066406,96.2271728515625,14.23822402954102,67180.99261529167,0.2665863037109375,-0.5191192626953125,-0.47027587890625,67180.98762629167,-0.263678252696991,2.006606817245483,-0.6964155435562134,67180.96592229167,61.74427795410156,-58.90939331054688,-132.8516693115234,67180.94272829167,0.2927065783804499,0.1895900420335153,0.5465542942028676,0.8956260681152344,2.618244886398315,-0.3506247401237488,-0.1402348577976227,0.08203279972076416,-0.0172039270401001,XArbitraryCorrectedZVertical,0.252513202329304,0.1293478110068763,0.1650620265153291,0.9445956788287083,0.1610020846128464,-0.5197466015815735,-0.8390124440193176,-1.358394622802734,-9.681606292724609,-12.94901275634766,-1,2,67166.617800625,unknown,2,2025-05-14T21:35:25.400+09:00,2025-05-14T21:29:57.482+09:00,149,1.61171,0,0,105.3387,0,0,2025-05-14T21:34:34.323+09:00,67178.777196,0,-0.1109772,101.6852,1747226139.460134,0.0.0.0,192.0.0.2,my_iOS_device,0,1,1747226139.453125,1,0.4,0
2025-05-14T21:35:39.808+09:00,11,1747226136.588171,35.65715016444047,139.701000684363,27.74336,-1,-1,-1,-1,30,37.08792774218872,-9999,1747226139.787936,0.9095344543457031,-9.719200134277344,-12.98007202148438,88.58948516845703,96.55809783935547,14.23825263977051,67181.02628929167,0.4242401123046875,-0.4680633544921875,-0.491241455078125,67181.02130029167,-0.8136207461357117,-1.012809753417969,-0.5889527201652527,67181.02655729167,62.74601745605469,-58.46080017089844,-133.4248809814453,67181.00259229167,0.2526746346207423,0.3573882377167364,0.5472000824362607,-0.5454753637313843,0.679278552532196,-0.6877523064613342,-0.01205092668533325,0.0114021897315979,0.3413454294204712,XArbitraryCorrectedZVertical,0.2422145800222867,0.2032727763978987,0.1670267544916465,0.9338707037713818,0.2987483441829681,-0.520298182964325,-0.8000245690345764,0.6993370056152344,-9.717636108398438,-13.09078979492188,-1,2,67180.98513229167,stationary,0,2025-05-14T21:35:39.767+09:00,2025-05-14T21:29:57.482+09:00,149,1.61171,0,0,105.3387,0,0,2025-05-14T21:34:34.323+09:00,67178.777196,0,-0.1109772,101.6852,1747226139.460134,0.0.0.0,192.0.0.2,my_iOS_device,0,1,1747226139.453125,1,0.4,0
2025-05-14T21:35:39.842+09:00,12,1747226136.588171,35.65715016444047,139.701000684363,27.74336,-1,-1,-1,-1,30,37.08792774218872,-9999,1747226139.828052,0.4617271423339844,-9.065296173095703,-13.60703277587891,90.50765228271484,98.47626495361328,14.23846244812012,67181.05996329167,0.3012237548828125,-0.4714508056640625,-0.63470458984375,67181.05497429168,-1.618583559989929,-3.124412775039673,-0.5616617202758789,67181.05687129167,61.96017456054688,-57.7962646484375,-133.9004669189453,67181.00259229167,0.2526746346207423,0.3573882377167364,0.5472000824362607,-0.5454753637313843,0.679278552532196,-0.6877523064613342,-0.01205092668533325,0.0114021897315979,0.3413454294204712,XArbitraryCorrectedZVertical,0.2422145800222867,0.2032727763978987,0.1670267544916465,0.9338707037713818,0.2987483441829681,-0.520298182964325,-0.8000245690345764,0.6993370056152344,-9.717636108398438,-13.09078979492188,-1,2,67180.98513229167,stationary,0,2025-05-14T21:35:39.767+09:00,2025-05-14T21:29:57.482+09:00,149,1.61171,0,0,105.3387,0,0,2025-05-14T21:34:34.323+09:00,67178.777196,0,-0.1109772,101.6852,1747226139.460134,0.0.0.0,192.0.0.2,my_iOS_device,0,1,1747226139.453125,1,0.4,0
2025-05-14T21:35:39.872+09:00,13,1747226136.588171,35.65715016444047,139.701000684363,27.74336,-1,-1,-1,-1,30,37.08792774218872,-9999,1747226139.867764,-0.9824943542480469,-8.028274536132812,-14.33939361572266,92.56771850585938,100.5363311767578,14.23873710632324,67181.09363629167,0.1490020751953125,-0.36773681640625,-1.082244873046875,67181.08864729168,-1.828059554100037,-1.992636799812317,-0.2060599625110626,67181.08718929168,60.67965698242188,-56.98335266113281,-134.3245544433594,67181.06245729167,0.2378714936129174,0.2621777965615484,0.4736698579240416,-1.762379050254822,-3.152898073196411,-0.4998110234737396,0.09355512261390686,-0.02431374788284302,0.2820521593093872,XArbitraryCorrectedZVertical,0.215893732353129,0.153768224968361,0.1448060026785146,0.9532977840574457,0.230648398399353,-0.4561551511287689,-0.8594904541969299,0.2459869384765625,-8.779926300048828,-13.85190582275391,-1,2,67180.98513229167,stationary,0,2025-05-14T21:35:39.767+09:00,2025-05-14T21:29:57.482+09:00,149,1.61171,0,0,105.3387,0,0,2025-05-14T21:34:34.323+09:00,67178.777196,0,-0.1109772,101.6852,1747226139.460134,0.0.0.0,192.0.0.2,my_iOS_device,0,1,1747226139.453125,1,0.4,0
2025-05-14T21:35:39.907+09:00,14,1747226136.588171,35.65715016444047,139.701000684363,27.74336,-1,-1,-1,-1,30,37.08792774218872,-9999,1747226139.887679,-1.577358245849609,-7.375171661376953,-14.72866821289062,93.10470581054688,101.0733184814453,14.23886775970459,67181.12731029167,-0.007720947265625,-0.2938995361328125,-0.810943603515625,67181.12232129167,-1.762102842330933,-2.692598342895508,-0.3200829327106476,67181.11751029167,59.85552978515625,-55.92477416992188,-134.8856048583984,67181.12232129167,0.2410736694238623,0.122089128542866,0.3647725348744241,-1.76224958896637,-2.700276136398315,-0.3166403770446777,-0.07107902318239212,0.02430868148803711,-0.004908323287963867,XArbitraryCorrectedZVertical,0.1725112564865571,0.08132851458451242,0.1290153663018772,0.9731293925509924,0.1137731298804283,-0.356736809015274,-0.9272511005401611,-1.830905914306641,-7.017330169677734,-14.883056640625,-1,2,67180.98513229167,stationary,0,2025-05-14T21:35:39.767+09:00,2025-05-14T21:29:57.482+09:00,149,1.61171,0,0,105.3387,0,0,2025-05-14T21:34:34.323+09:00,67178.777196,0,-0.1109772,101.6852,1747226139.460134,0.0.0.0,192.0.0.2,my_iOS_device,0,1,1747226139.453125,1,0.4,0
2025-05-14T21:35:39.942+09:00,15,1747226136.588171,35.65715016444047,139.701000684363,27.74336,-1,-1,-1,-1,30,37.08792774218872,-9999,1747226139.927716,-3.275051116943359,-6.312030792236328,-15.05744171142578,94.74687194824219,102.7154846191406,14.23913383483887,67181.16098429167,-0.0568695068359375,-0.1495208740234375,-0.6715240478515625,67181.15599529167,-2.233448028564453,-3.822499990463257,-0.2297823280096054,67181.14783029167,58.33787536621094,-55.30290222167969,-135.055419921875,67181.12232129167,0.2410736694238623,0.122089128542866,0.3647725348744241,-1.76224958896637,-2.700276136398315,-0.3166403770446777,-0.07107902318239212,0.02430868148803711,-0.004908323287963867,XArbitraryCorrectedZVertical,0.1725112564865571,0.08132851458451242,0.1290153663018772,0.9731293925509924,0.1137731298804283,-0.356736809015274,-0.9272511005401611,-1.830905914306641,-7.017330169677734,-14.883056640625,-1,2,67180.98513229167,stationary,0,2025-05-14T21:35:39.767+09:00,2025-05-14T21:29:57.482+09:00,149,1.61171,0,0,105.3387,0,0,2025-05-14T21:34:34.323+09:00,67178.777196,0,-0.1109772,101.6852,1747226139.460134,0.0.0.0,192.0.0.2,my_iOS_device,0,1,1747226139.453125,1,0.4,0
2025-05-14T21:35:39.980+09:00,16,1747226136.588171,35.65715016444047,139.701000684363,27.74336,-1,-1,-1,-1,30,37.08792774218872,-9999,1747226139.967776,-5.105030059814453,-5.243770599365234,-15.15301513671875,96.68177032470703,104.6503829956055,14.2394495010376,67181.19465829167,-0.3453216552734375,-0.1071624755859375,-1.054916381835938,67181.18966929168,-2.75029468536377,-3.601130723953247,-0.2660159766674042,67181.17815229167,56.49366760253906,-54.14981079101562,-135.1089935302734,67181.18218629167,0.2257886304007852,-0.09319977655126215,0.2355044883693489,-2.629163503646851,-4.031120777130127,-0.2813612520694733,-0.0922585055232048,0.05752170085906982,0.2462375164031982,XArbitraryCorrectedZVertical,0.1218171722743204,-0.03274562378843569,0.1063153357469935,0.9862989655886649,-0.09049601852893829,-0.2333335727453232,-0.9681766033172607,-5.105030059814453,-5.243770599365234,-15.15301513671875,-1,2,67180.98513229167,stationary,0,2025-05-14T21:35:39.767+09:00,2025-05-14T21:29:57.482+09:00,149,1.61171,0,0,105.3387,0,0,2025-05-14T21:34:34.323+09:00,67178.777196,0,-0.1109772,101.6852,1747226139.460134,0.0.0.0,192.0.0.2,my_iOS_device,0,1,1747226139.453125,1,0.4,0
2025-05-14T21:35:40.007+09:00,17,1747226136.588171,35.65715016444047,139.701000684363,27.74336,-1,-1,-1,-1,30,37.08792774218872,-9999,1747226139.987589,-6.373016357421875,-4.410888671875,-15.19154357910156,97.55940246582031,105.5280151367188,14.2396068572998,67181.22833129167,-0.317047119140625,-0.0968475341796875,-2.563644409179688,67181.22334329167,-1.839071154594421,1.073408603668213,-0.3234606087207794,67181.20847429168,54.827880859375,-52.90083312988281,-135.1740875244141,67181.18218629167,0.2257886304007852,-0.09319977655126215,0.2355044883693489,-2.629163503646851,-4.031120777130127,-0.2813612520694733,-0.0922585055232048,0.05752170085906982,0.2462375164031982,XArbitraryCorrectedZVertical,0.1218171722743204,-0.03274562378843569,0.1063153357469935,0.9862989655886649,-0.09049601852893829,-0.2333335727453232,-0.9681766033172607,-5.105030059814453,-5.243770599365234,-15.15301513671875,-1,2,67180.98513229167,stationary,0,2025-05-14T21:35:39.767+09:00,2025-05-14T21:29:57.482+09:00,149,1.61171,0,0,105.3387,0,0,2025-05-14T21:34:34.323+09:00,67178.777196,0,-0.1109772,101.6852,1747226139.460134,0.0.0.0,192.0.0.2,my_iOS_device,0,1,1747226139.453125,1,0.4,0
2025-05-14T21:35:40.042+09:00,18,1747226136.588171,35.65715016444047,139.701000684363,27.74336,-1,-1,-1,-1,30,37.08792774218872,-9999,1747226140.027549,-7.06573486328125,-3.179168701171875,-14.94226837158203,98.64076232910156,106.609375,14.239821434021,67181.26200516667,0.177703857421875,-0.1827850341796875,-1.146636962890625,67181.25701716667,-0.8992043733596802,-1.802620530128479,0.420434296131134,67181.23879516668,54.6485595703125,-52.11277770996094,-134.8195495605469,67181.24205116667,0.1863236755668335,-0.1742969991874924,0.1009951938029065,-1.112356066703796,-0.9993779063224792,-0.1811404973268509,-0.04051105678081512,-0.07027330249547958,-0.574399471282959,XArbitraryCorrectedZVertical,0.05815311236827689,-0.08187248600570896,0.08818165015233755,0.9910294235900483,-0.1725321561098099,-0.1008235886693001,-0.9798302054405212,-7.06573486328125,-3.179168701171875,-14.94226837158203,-1,2,67180.98513229167,stationary,0,2025-05-14T21:35:39.767+09:00,2025-05-14T21:29:57.482+09:00,149,1.61171,0,0,105.3387,0,0,2025-05-14T21:34:34.323+09:00,67178.777196,0,-0.1109772,101.6852,1747226139.460134,0.0.0.0,192.0.0.2,my_iOS_device,0,1,1747226139.453125,1,0.4,0
2025-05-14T21:35:40.077+09:00,19,1747226136.588171,35.65715016444047,139.701000684363,27.74336,-1,-1,-1,-1,30,37.08792774218872,-9999,1747226140.067534,-8.327869415283203,-2.306739807128906,-14.49461364746094,97.01720428466797,104.9858169555664,14.23994445800781,67181.29567916667,0.2163543701171875,-0.0821685791015625,-0.9949798583984375,67181.29069116667,-0.9333127737045288,-1.500645995140076,1.96509325504303,67181.26911616667,53.7510986328125,-51.54005432128906,-134.4641418457031,67181.24205116667,0.1863236755668335,-0.1742969991874924,0.1009951938029065,-1.112356066703796,-0.9993779063224792,-0.1811404973268509,-0.04051105678081512,-0.07027330249547958,-0.574399471282959,XArbitraryCorrectedZVertical,0.05815311236827689,-0.08187248600570896,0.08818165015233755,0.9910294235900483,-0.1725321561098099,-0.1008235886693001,-0.9798302054405212,-7.06573486328125,-3.179168701171875,-14.94226837158203,-1,2,67180.98513229167,stationary,0,2025-05-14T21:35:39.767+09:00,2025-05-14T21:29:57.482+09:00,149,1.61171,0,0,105.3387,0,0,2025-05-14T21:34:34.323+09:00,67178.777196,0,-0.1109772,101.6852,1747226139.460134,0.0.0.0,192.0.0.2,my_iOS_device,0,1,1747226139.453125,1,0.4,0
2025-05-14T21:35:40.112+09:00,20,1747226136.588171,35.65715016444047,139.701000684363,27.74336,-1,-1,-1,-1,30,37.08792774218872,-9999,1747226140.107398,-9.161338806152344,-0.9602470397949219,-14.22003936767578,92.76804351806641,100.7366561889648,14.24009895324707,67181.32935316667,-0.49969482421875,-0.0511932373046875,-1.015182495117188,67181.32436516667,-1.379870891571045,1.898699879646301,1.655931234359741,67181.32975416667,52.86369323730469,-49.36376953125,-134.5376434326172,67181.30191516667,0.2376065225689962,-0.2781477760088065,0.02811077016918831,-1.020857572555542,-0.7859731316566467,2.295052528381348,0.5066595673561096,-0.06072968989610672,-0.0452229380607605,XArbitraryCorrectedZVertical,0.03024998420987918,-0.1359854872762175,0.115433369935498,0.983497937706057,-0.2744666039943695,-0.02810706757009029,-0.9611857533454895,-9.104637145996094,-1.934608459472656,-14.32649230957031,-1,2,67181.30441016666,unknown,2,2025-05-14T21:35:40.086+09:00,2025-05-14T21:29:57.482+09:00,149,1.61171,0,0,105.3387,0,0,2025-05-14T21:34:34.323+09:00,67178.777196,0,-0.1109772,101.6852,1747226139.460134,0.0.0.0,192.0.0.2,my_iOS_device,0,1,1747226139.453125,1,0.4,0
2025-05-14T21:35:40.142+09:00,21,1747226136.588171,35.65715016444047,139.701000684363,27.74336,-1,-1,-1,-1,30,37.08792774218872,-9999,1747226140.127272,-8.520168304443359,-0.1073493957519531,-14.83726501464844,91.71837615966797,99.68698883056641,14.24017810821533,67181.36302716668,-0.3148956298828125,0.154022216796875,-1.562759399414062,67181.35803816667,-0.4976145625114441,2.490209102630615,-0.3415099382400513,67181.36007116667,54.20732116699219,-48.73544311523438,-135.2415771484375,67181.30191516667,0.2376065225689962,-0.2781477760088065,0.02811077016918831,-1.020857572555542,-0.7859731316566467,2.295052528381348,0.5066595673561096,-0.06072968989610672,-0.0452229380607605,XArbitraryCorrectedZVertical,0.03024998420987918,-0.1359854872762175,0.115433369935498,0.983497937706057,-0.2744666039943695,-0.02810706757009029,-0.9611857533454895,-9.104637145996094,-1.934608459472656,-14.32649230957031,-1,2,67181.30441016666,unknown,2,2025-05-14T21:35:40.086+09:00,2025-05-14T21:29:57.482+09:00,149,1.61171,0,0,105.3387,0,0,2025-05-14T21:34:34.323+09:00,67178.777196,0,-0.1109772,101.6852,1747226139.460134,0.0.0.0,192.0.0.2,my_iOS_device,0,1,1747226139.453125,1,0.4,0
2025-05-14T21:35:40.180+09:00,22,1747226136.588171,35.65715016444047,139.701000684363,27.74336,-1,-1,-1,-1,30,37.08792774218872,-9999,1747226140.167068,-7.134849548339844,0.3185005187988281,-15.47544860839844,93.44004821777344,101.4086608886719,14.2398853302002,67181.39670116667,0.118896484375,-0.0135345458984375,-0.7794036865234375,67181.39171216667,-0.5942966341972351,0.8810296058654785,-0.5188301205635071,67181.39039316667,54.76972961425781,-48.71493530273438,-135.4757232666016,67181.36178016667,0.2898297667172959,-0.1506081724099168,-0.05809775929666431,-0.368464469909668,2.211622714996338,-0.5808464884757996,-0.2238709479570389,0.3392584621906281,-0.4037656784057617,XArbitraryCorrectedZVertical,-0.01779923304285282,-0.07859536197902794,0.1461004044222214,0.9859821771759801,-0.1497863084077835,0.05806508287787437,-0.9870119094848633,-7.679000854492188,0.2299613952636719,-15.28858947753906,-1,2,67181.30441016666,unknown,2,2025-05-14T21:35:40.086+09:00,2025-05-14T21:29:57.482+09:00,149,1.61171,0,0,105.3387,0,0,2025-05-14T21:34:34.323+09:00,67179.785067,0,-0.1109772,101.6852,1747226139.460134,0.0.0.0,192.0.0.2,my_iOS_device,0,1,1747226139.453125,1,0.4,0
2025-05-14T21:35:40.212+09:00,23,1747226136.588171,35.65715016444047,139.701000684363,27.74336,-1,-1,-1,-1,30,37.08792774218872,-9999,1747226140.207002,-6.671226501464844,0.4979934692382812,-15.63365936279297,93.98783111572266,101.9564437866211,14.23920345306396,67181.43037516667,-0.116058349609375,0.0417022705078125,-1.363845825195312,67181.42538616667,-0.3251860737800598,0.8847638964653015,-0.2743109166622162,67181.42071416667,55.14500427246094,-48.52841186523438,-135.5422668457031,67181.42164416666,0.2588058131188051,-0.08506356627322376,-0.08353728394443384,-0.4212503731250763,0.8112286329269409,-0.1664402782917023,0.1745237410068512,0.007670000195503235,-0.1743724346160889,XArbitraryCorrectedZVertical,-0.0358879793677891,-0.04751015790532306,0.1305735071747575,0.9896492180642152,-0.08466473966836929,0.0834401547908783,-0.9929096698760986,-6.671226501464844,0.4979934692382812,-15.63365936279297,-1,2,67181.30441016666,unknown,2,2025-05-14T21:35:40.086+09:00,2025-05-14T21:29:57.482+09:00,149,1.61171,0,0,105.3387,0,0,2025-05-14T21:34:34.323+09:00,67179.785067,0,-0.1109772,101.6852,1747226139.460134,0.0.0.0,192.0.0.2,my_iOS_device,0,1,1747226139.453125,1,0.4,0
2025-05-14T21:35:40.246+09:00,24,1747226136.588171,35.65715016444047,139.701000684363,27.74336,-1,-1,-1,-1,30,37.08792774218872,-9999,1747226140.226937,-6.507911682128906,0.3954277038574219,-15.79431915283203,94.59226226806641,102.5608749389648,14.23922443389893,67181.46404916667,-0.11083984375,0.0593414306640625,-0.884857177734375,67181.45906016667,0.1748642176389694,0.6102311611175537,-0.4796470403671265,67181.45103316667,55.45730590820312,-48.587646484375,-135.7300567626953,67181.42164416666,0.2588058131188051,-0.08506356627322376,-0.08353728394443384,-0.4212503731250763,0.8112286329269409,-0.1664402782917023,0.1745237410068512,0.007670000195503235,-0.1743724346160889,XArbitraryCorrectedZVertical,-0.0358879793677891,-0.04751015790532306,0.1305735071747575,0.9896492180642152,-0.08466473966836929,0.0834401547908783,-0.9929096698760986,-6.671226501464844,0.4979934692382812,-15.63365936279297,-1,2,67181.30441016666,unknown,2,2025-05-14T21:35:40.086+09:00,2025-05-14T21:29:57.482+09:00,149,1.61171,0,0,105.3387,0,0,2025-05-14T21:34:34.323+09:00,67179.785067,0,-0.1109772,101.6852,1747226139.460134,0.0.0.0,192.0.0.2,my_iOS_device,0,1,1747226139.453125,1,0.4,0
2025-05-14T21:35:40.277+09:00,25,1747226136.588171,35.65715016444047,139.701000684363,27.74336,-1,-1,-1,-1,30,37.08792774218872,-9999,1747226140.266814,-6.454795837402344,0.3529129028320312,-16.05519866943359,95.66909790039062,103.6377105712891,14.2393627166748,67181.49772216668,-0.315155029296875,-0.109161376953125,-1.413650512695312,67181.49273416668,0.4495589137077332,0.3819721341133118,-0.6203849911689758,67181.48134716667,55.29266357421875,-48.58436584472656,-136.0162353515625,67181.48150916667,0.2306139942942544,-0.04904023158369912,-0.07988495600654943,0.1641245186328888,-0.07332537323236465,-0.4716900587081909,-0.08111011981964111,-0.0007443055510520935,0.138541579246521,XArbitraryCorrectedZVertical,-0.03683621711528084,-0.0289282661210273,0.1158978545750547,0.9921562955671331,-0.04886424541473389,0.07980001717805862,-0.9956125020980835,-6.454795837402344,0.3529129028320312,-16.05519866943359,-1,2,67181.30441016666,unknown,2,2025-05-14T21:35:40.086+09:00,2025-05-14T21:29:57.482+09:00,149,1.61171,0,0,105.3387,0,0,2025-05-14T21:34:34.323+09:00,67179.785067,0,-0.1109772,101.6852,1747226139.460134,0.0.0.0,192.0.0.2,my_iOS_device,0,1,1747226139.453125,1,0.4,0
2025-05-14T21:35:40.311+09:00,26,1747226136.588171,35.65715016444047,139.701000684363,27.74336,-1,-1,-1,-1,30,37.08792774218872,-9999,1747226140.306756,-6.413253784179688,-0.02886581420898438,-16.14598846435547,96.93644714355469,104.9050598144531,14.23953342437744,67181.53139616667,-0.0486907958984375,0.101104736328125,-1.142654418945312,67181.52640816667,0.5153807997703552,0.2814609706401825,-0.346731573343277,67181.51166216667,55.39579772949219,-49.01828002929688,-135.9268798828125,67181.48150916667,0.2306139942942544,-0.04904023158369912,-0.07988495600654943,0.1641245186328888,-0.07332537323236465,-0.4716900587081909,-0.08111011981964111,-0.0007443055510520935,0.138541579246521,XArbitraryCorrectedZVertical,-0.03683621711528084,-0.0289282661210273,0.1158978545750547,0.9921562955671331,-0.04886424541473389,0.07980001717805862,-0.9956125020980835,-6.454795837402344,0.3529129028320312,-16.05519866943359,-1,2,67181.30441016666,unknown,2,2025-05-14T21:35:40.086+09:00,2025-05-14T21:29:57.482+09:00,149,1.61171,0,0,105.3387,0,0,2025-05-14T21:34:34.323+09:00,67179.785067,0,-0.1109772,101.6852,1747226139.460134,0.0.0.0,192.0.0.2,my_iOS_device,0,1,1747226139.453125,1,0.4,0
2025-05-14T21:35:40.346+09:00,27,1747226136.588171,35.65715016444047,139.701000684363,27.74336,-1,-1,-1,-1,30,37.08792774218872,-9999,1747226140.326724,-6.383869171142578,-0.1244049072265625,-15.94817352294922,97.16222381591797,105.1308364868164,14.23964214324951,67181.56507016667,0.059814453125,0.0806427001953125,-1.110992431640625,67181.56008216667,-0.2605559527873993,0.685532808303833,-0.155801847577095,67181.54197716666,55.43476867675781,-49.20729064941406,-135.8184814453125,67181.54137416667,0.2028178406529653,-0.03435067283043098,-0.05073992237319055,0.1734681576490402,0.5401211380958557,-0.1573284864425659,-0.004198204725980759,0.05888565257191658,-0.1630547642707825,XArbitraryCorrectedZVertical,-0.02349508944855939,-0.01964843783868645,0.1016211217201019,0.994351621869492,-0.03429971635341644,0.05071815475821495,-0.998123824596405,-6.383869171142578,-0.1244049072265625,-15.94817352294922,-1,2,67181.30441016666,unknown,2,2025-05-14T21:35:40.086+09:00,2025-05-14T21:29:57.482+09:00,149,1.61171,0,0,105.3387,0,0,2025-05-14T21:34:34.323+09:00,67179.785067,0,-0.1109772,101.6852,1747226139.460134,0.0.0.0,192.0.0.2,my_iOS_device,0,1,1747226139.453125,1,0.4,0
2025-05-14T21:35:40.381+09:00,28,1747226136.588171,35.65715016444047,139.701000684363,27.74336,-1,-1,-1,-1,30,37.08792774218872,-9999,1747226140.366627,-6.227241516113281,-0.1605758666992188,-16.01282501220703,97.53947448730469,105.5080871582031,14.2398853302002,67181.59874416667,0.1729736328125,0.2422027587890625,-1.04058837890625,67181.59375616667,0.7040148973464966,0.03789225593209267,-0.03707626089453697,67181.57229916667,55.49333190917969,-49.2298583984375,-136.0640258789062,67181.54137416667,0.2028178406529653,-0.03435067283043098,-0.05073992237319055,0.1734681576490402,0.5401211380958557,-0.1573284864425659,-0.004198204725980759,0.05888565257191658,-0.1630547642707825,XArbitraryCorrectedZVertical,-0.02349508944855939,-0.01964843783868645,0.1016211217201019,0.994351621869492,-0.03429971635341644,0.05071815475821495,-0.998123824596405,-6.383869171142578,-0.1244049072265625,-15.94817352294922,-1,2,67181.30441016666,unknown,2,2025-05-14T21:35:40.086+09:00,2025-05-14T21:29:57.482+09:00,149,1.61171,0,0,105.3387,0,0,2025-05-14T21:34:34.323+09:00,67179.785067,0,-0.1109772,101.6852,1747226139.460134,0.0.0.0,192.0.0.2,my_iOS_device,0,1,1747226139.453125,1,0.4,0
2025-05-14T21:35:40.411+09:00,29,1747226136.588171,35.65715016444047,139.701000684363,27.74336,-1,-1,-1,-1,30,37.08792774218872,-9999,1747226140.406519,-6.323623657226562,-0.7513885498046875,-16.06053161621094,97.43321228027344,105.4018249511719,14.24014663696289,67181.63241816667,0.1180877685546875,-0.0032806396484375,-0.938720703125,67181.62742916668,1.540339827537537,-0.604838490486145,0.00404640706256032,67181.60262216667,55.36697387695312,-49.42762756347656,-136.0383911132812,67181.60123816667,0.1950566831770833,-0.009008872509492422,-0.04316484520528022,1.021354079246521,-0.1780726760625839,0.04993335530161858,0.1572547554969788,0.1942904889583588,-0.08411711454391479,XArbitraryCorrectedZVertical,-0.02103946259669934,-0.006583348526276901,0.09744687641262013,0.9949966309747504,-0.009000359103083611,0.04315144196152687,-0.9990280270576477,-6.315837860107422,-0.3349761962890625,-16.01326751708984,-1,2,67181.30441016666,unknown,2,2025-05-14T21:35:40.086+09:00,2025-05-14T21:29:57.482+09:00,149,1.61171,0,0,105.3387,0,0,2025-05-14T21:34:34.323+09:00,67179.785067,0,-0.1109772,101.6852,1747226139.460134,0.0.0.0,192.0.0.2,my_iOS_device,0,1,1747226139.453125,1,0.4,0
2025-05-14T21:35:40.446+09:00,30,1747226136.588171,35.65715016444047,139.701000684363,27.74336,-1,-1,-1,-1,30,37.08792774218872,-9999,1747226140.426436,-6.519649505615234,-1.381599426269531,-15.94706726074219,97.47926330566406,105.4478759765625,14.24027633666992,67181.66609216668,0.1433563232421875,-0.0283660888671875,-0.786224365234375,67181.66110316667,1.090456366539001,-1.265962958335876,-0.1945282071828842,67181.66326516667,54.8507080078125,-51.00419616699219,-135.4301910400391,67181.66110316667,0.194580408530868,-0.04881187632211694,0.03768083819091093,1.090333461761475,-1.273644804954529,-0.1910977810621262,0.1840117573738098,-0.009538862854242325,0.1080852746963501,XArbitraryCorrectedZVertical,0.02111468700893895,-0.02245435559891203,0.09663305517395139,0.9948427827651576,-0.04875786229968071,-0.03767192363739014,-0.9980999231338501,-6.600276947021484,-1.668666839599609,-15.83694458007812,-1,2,67181.30441016666,unknown,2,2025-05-14T21:35:40.086+09:00,2025-05-14T21:29:57.482+09:00,149,1.61171,0,0,105.3387,0,0,2025-05-14T21:34:34.323+09:00,67179.785067,0,-0.1109772,101.6852,1747226139.460134,0.0.0.0,192.0.0.2,my_iOS_device,0,1,1747226139.453125,1,0.4,0
2025-05-14T21:35:40.481+09:00,31,1747226136.588171,35.65715016444047,139.701000684363,27.74336,-1,-1,-1,-1,30,37.08792774218872,-9999,1747226140.466308,-7.181594848632812,-2.275096893310547,-15.39044189453125,97.85992431640625,105.8285369873047,14.24052047729492,67181.69976616667,-0.1208038330078125,-0.1642303466796875,-1.1358642578125,67181.69477716667,1.663392543792725,-1.417505264282227,-0.455777645111084,67181.69358816667,54.42727661132812,-51.73167419433594,-135.1158752441406,67181.66110316667,0.194580408530868,-0.04881187632211694,0.03768083819091093,1.090333461761475,-1.273644804954529,-0.1910977810621262,0.1840117573738098,-0.009538862854242325,0.1080852746963501,XArbitraryCorrectedZVertical,0.02111468700893895,-0.02245435559891203,0.09663305517395139,0.9948427827651576,-0.04875786229968071,-0.03767192363739014,-0.9980999231338501,-6.600276947021484,-1.668666839599609,-15.83694458007812,-1,2,67181.30441016666,unknown,2,2025-05-14T21:35:40.086+09:00,2025-05-14T21:29:57.482+09:00,149,1.61171,0,0,105.3387,0,0,2025-05-14T21:34:34.323+09:00,67179.785067,0,-0.1109772,101.6852,1747226139.460134,0.0.0.0,192.0.0.2,my_iOS_device,0,1,1747226139.453125,1,0.4,0
2025-05-14T21:35:40.516+09:00,32,1747226136.588171,35.65715016444047,139.701000684363,27.74336,-1,-1,-1,-1,30,37.08792774218872,-9999,1747226140.506212,-7.773250579833984,-3.378211975097656,-14.85441589355469,98.661376953125,106.6299896240234,14.24074840545654,67181.73344016667,-0.118408203125,-0.0851898193359375,-0.9315948486328125,67181.72845116667,1.125822305679321,-0.406838059425354,0.004627508576959372,67181.72390916667,53.97637939453125,-52.49678039550781,-134.6900939941406,67181.72096816667,0.1839157753549231,-0.1255934709622129,0.1260390607797051,1.402776002883911,-0.4591831862926483,-0.1080849766731262,0.0001396536827087402,0.007510930299758911,-0.14009028673172,XArbitraryCorrectedZVertical,0.06833940761047841,-0.0565945167887238,0.08752989897288377,0.9922023689898405,-0.1242699101567268,-0.1257056146860123,-0.9842535853385925,-7.693153381347656,-3.131866455078125,-15.07499694824219,-1,2,67181.30441016666,unknown,2,2025-05-14T21:35:40.086+09:00,2025-05-14T21:29:57.482+09:00,149,1.61171,0,0,105.3387,0,0,2025-05-14T21:34:34.323+09:00,67179.785067,0,-0.1109772,101.6852,1747226139.460134,0.0.0.0,192.0.0.2,my_iOS_device,0,1,1747226139.453125,1,0.4,0
2025-05-14T21:35:40.546+09:00,33,1747226136.588171,35.65715016444047,139.701000684363,27.74336,-1,-1,-1,-1,30,37.08792774218872,-9999,1747226140.526198,-7.985633850097656,-3.727859497070312,-14.83082580566406,98.57811737060547,106.5467300415039,14.24086475372314,67181.76711416667,-0.0517425537109375,-0.1446685791015625,-0.9188690185546875,67181.76212516667,0.758454442024231,-0.911248505115509,-0.01098793651908636,67181.75422916668,53.66766357421875,-52.81715393066406,-134.6525726318359,67181.72096816667,0.1839157753549231,-0.1255934709622129,0.1260390607797051,1.402776002883911,-0.4591831862926483,-0.1080849766731262,0.0001396536827087402,0.007510930299758911,-0.14009028673172,XArbitraryCorrectedZVertical,0.06833940761047841,-0.0565945167887238,0.08752989897288377,0.9922023689898405,-0.1242699101567268,-0.1257056146860123,-0.9842535853385925,-7.693153381347656,-3.131866455078125,-15.07499694824219,-1,2,67181.30441016666,unknown,2,2025-05-14T21:35:40.086+09:00,2025-05-14T21:29:57.482+09:00,149,1.61171,0,0,105.3387,0,0,2025-05-14T21:34:34.323+09:00,67179.785067,0,-0.1109772,101.6852,1747226139.460134,0.0.0.0,192.0.0.2,my_iOS_device,0,1,1747226139.453125,1,0.4,0
2025-05-14T21:35:40.581+09:00,34,1747226136.588171,35.65715016444047,139.701000684363,27.74336,-1,-1,-1,-1,30,37.08792774218872,-9999,1747226140.566065,-8.430118560791016,-4.144073486328125,-14.24348449707031,98.72303771972656,106.691650390625,14.24108695983887,67181.80078816667,-0.10235595703125,-0.145111083984375,-0.972320556640625,67181.79579916668,1.964260578155518,-1.311626315116882,-0.1879017204046249,67181.78454916667,53.2635498046875,-53.22801208496094,-134.0444030761719,67181.78083316667,0.1911683618666285,-0.1694900983147158,0.1811229656125383,1.499199151992798,-1.171720862388611,-0.1983954161405563,0.08568978309631348,0.03575551509857178,0.0070229172706604,XArbitraryCorrectedZVertical,0.09774702370897276,-0.07531171312233542,0.08708646297910301,0.9885290469548383,-0.1659205108880997,-0.1801342815160751,-0.9695473313331604,-8.210357666015625,-3.995548248291016,-14.54957580566406,-1,2,67181.30441016666,unknown,2,2025-05-14T21:35:40.086+09:00,2025-05-14T21:29:57.482+09:00,149,1.61171,0,0,105.3387,0,0,2025-05-14T21:34:34.323+09:00,67179.785067,0,-0.1109772,101.6852,1747226139.460134,0.0.0.0,192.0.0.2,my_iOS_device,0,1,1747226139.453125,1,0.4,0
2025-05-14T21:35:40.616+09:00,35,1747226136.588171,35.65715016444047,139.701000684363,27.74336,-1,-1,-1,-1,30,37.08792774218872,-9999,1747226140.606125,-8.83740234375,-5.372337341308594,-13.30352783203125,98.78681182861328,106.7554244995117,14.24131298065186,67181.83446216668,-0.09197998046875,-0.1809539794921875,-0.7262725830078125,67181.82947316667,1.531671047210693,-2.128709316253662,0.2672559320926666,67181.81487216667,52.95030212402344,-54.31085205078125,-133.3759002685547,67181.78083316667,0.1911683618666285,-0.1694900983147158,0.1811229656125383,1.499199151992798,-1.171720862388611,-0.1983954161405563,0.08568978309631348,0.03575551509857178,0.0070229172706604,XArbitraryCorrectedZVertical,0.09774702370897276,-0.07531171312233542,0.08708646297910301,0.9885290469548383,-0.1659205108880997,-0.1801342815160751,-0.9695473313331604,-8.210357666015625,-3.995548248291016,-14.54957580566406,-1,2,67181.30441016666,unknown,2,2025-05-14T21:35:40.086+09:00,2025-05-14T21:29:57.482+09:00,149,1.61171,0,0,105.3387,0,0,2025-05-14T21:34:34.323+09:00,67179.785067,0,-0.1109772,101.6852,1747226139.460134,0.0.0.0,192.0.0.2,my_iOS_device,0,1,1747226139.453125,1,0.4,0
2025-05-14T21:35:40.651+09:00,36,1747226136.588171,35.65715016444047,139.701000684363,27.74336,-1,-1,-1,-1,30,37.08792774218872,-9999,1747226140.646142,-10.05632400512695,-5.891937255859375,-12.06878662109375,98.28256988525391,106.2511825561523,14.24145126342773,67181.86813616667,-0.3104095458984375,-0.234954833984375,-1.038787841796875,67181.86314716667,0.9663479924201965,-1.413888931274414,0.3945036232471466,67181.84519716667,52.2071533203125,-54.77487182617188,-132.4932098388672,67181.84069816668,0.2159820190498039,-0.2761097152409595,0.2830219853791254,1.288648247718811,-2.247047901153564,0.3504354953765869,0.1742293536663055,0.1018446087837219,0.1982754468917847,XArbitraryCorrectedZVertical,0.1535676805540623,-0.1203907188263539,0.08639233579696454,0.9769645131900878,-0.2617690563201904,-0.279258668422699,-0.9238460659980774,-9.231899261474609,-5.6107177734375,-12.97518920898438,-1,2,67181.30441016666,unknown,2,2025-05-14T21:35:40.086+09:00,2025-05-14T21:29:57.482+09:00,149,1.61171,0,0,105.3387,0,0,2025-05-14T21:34:34.323+09:00,67179.785067,0,-0.1109772,101.6852,1747226139.460134,0.0.0.0,192.0.0.2,my_iOS_device,0,1,1747226139.453125,1,0.4,0
2025-05-14T21:35:40.681+09:00,37,1747226136.588171,35.65715016444047,139.701000684363,27.74336,-1,-1,-1,-1,30,37.08792774218872,-9999,1747226140.665955,-10.32638549804688,-5.979084014892578,-11.90754699707031,97.69775390625,105.6663665771484,14.24151039123535,67181.90181016667,-0.261566162109375,-0.1441192626953125,-0.9170684814453125,67181.89682116667,0.3570966124534607,-0.5752883553504944,0.8795661926269531,67181.87552016666,51.43736267089844,-54.9156494140625,-131.8272247314453,67181.84069816668,0.2159820190498039,-0.2761097152409595,0.2830219853791254,1.288648247718811,-2.247047901153564,0.3504354953765869,0.1742293536663055,0.1018446087837219,0.1982754468917847,XArbitraryCorrectedZVertical,0.1535676805540623,-0.1203907188263539,0.08639233579696454,0.9769645131900878,-0.2617690563201904,-0.279258668422699,-0.9238460659980774,-9.231899261474609,-5.6107177734375,-12.97518920898438,-1,2,67181.30441016666,unknown,2,2025-05-14T21:35:40.086+09:00,2025-05-14T21:29:57.482+09:00,149,1.61171,0,0,105.3387,0,0,2025-05-14T21:34:34.323+09:00,67179.785067,0,-0.1109772,101.6852,1747226139.460134,0.0.0.0,192.0.0.2,my_iOS_device,0,1,1747226139.453125,1,0.4,0
2025-05-14T21:35:40.715+09:00,38,1747226136.588171,35.65715016444047,139.701000684363,27.74336,-1,-1,-1,-1,30,37.08792774218872,-9999,1747226140.705821,-10.57986450195312,-5.864158630371094,-11.63238525390625,95.80292510986328,103.7715377807617,14.24163722991943,67181.93548416666,-0.3364410400390625,-0.3828125,-0.9580230712890625,67181.93049516667,0.7407824993133545,-0.5118893980979919,0.6783763766288757,67181.93616516667,51.07147216796875,-54.82601928710938,-131.5574493408203,67181.90056316667,0.2636342915107015,-0.364029274523551,0.3177367932175745,0.3395454287528992,-0.6169776916503906,0.9140630960464478,0.04329872131347656,0.1706936955451965,-0.07205241918563843,XArbitraryCorrectedZVertical,0.1777295933845411,-0.1567314709653876,0.09924898281111344,0.9664353369249971,-0.338220626115799,-0.3124174475669861,-0.8876948952674866,-10.38357162475586,-5.888198852539062,-11.8338623046875,-1,2,67181.30441016666,unknown,2,2025-05-14T21:35:40.086+09:00,2025-05-14T21:29:57.482+09:00,149,1.61171,0,0,105.3387,0,0,2025-05-14T21:34:34.323+09:00,67179.785067,0,-0.1109772,101.6852,1747226139.460134,0.0.0.0,192.0.0.2,my_iOS_device,0,1,1747226139.453125,1,0.4,0
2025-05-14T21:35:40.750+09:00,39,1747226136.588171,35.65715016444047,139.701000684363,27.74336,-1,-1,-1,-1,30,37.08792774218872,-9999,1747226140.746053,-10.7564811706543,-6.095298767089844,-11.11475372314453,94.33665466308594,102.3052673339844,14.2417631149292,67181.96915816667,-0.288055419921875,-0.3756103515625,-0.7911529541015625,67181.96416916668,0.5051800608634949,-0.2582786977291107,0.4767343401908875,67181.96648816667,50.92892456054688,-54.94387817382812,-130.9512939453125,67181.96042716668,0.319622185772439,-0.4120471378756336,0.3363171748744372,0.5806834101676941,-0.2797109484672546,0.4848045706748962,0.05613461136817932,-0.06897410750389099,0.01220047473907471,XArbitraryCorrectedZVertical,0.1938343858835641,-0.1730434903993673,0.1197673772033306,0.9581962615340478,-0.3780493140220642,-0.3300128281116486,-0.8649683594703674,-10.7564811706543,-6.095298767089844,-11.11475372314453,-1,2,67181.30441016666,unknown,2,2025-05-14T21:35:40.086+09:00,2025-05-14T21:29:57.482+09:00,149,1.61171,0,0,105.3387,0,0,2025-05-14T21:34:34.323+09:00,67179.785067,0,-0.1109772,101.6852,1747226139.460134,0.0.0.0,192.0.0.2,my_iOS_device,0,1,1747226139.453125,1,0.4,0
2025-05-14T21:35:40.785+09:00,40,1747226136.588171,35.65715016444047,139.701000684363,27.74336,-1,-1,-1,-1,30,37.08792774218872,-9999,1747226140.765931,-10.75989532470703,-5.938274383544922,-10.97498321533203,93.7659912109375,101.7346038818359,14.24181842803955,67182.00283216668,-0.3786773681640625,-0.3990020751953125,-0.8334808349609375,67181.99784316667,0.0350533239543438,0.08118753135204315,0.4353978037834167,67181.99680616667,51.08299255371094,-54.9005126953125,-131.1113739013672,67181.96042716668,0.319622185772439,-0.4120471378756336,0.3363171748744372,0.5806834101676941,-0.2797109484672546,0.4848045706748962,0.05613461136817932,-0.06897410750389099,0.01220047473907471,XArbitraryCorrectedZVertical,0.1938343858835641,-0.1730434903993673,0.1197673772033306,0.9581962615340478,-0.3780493140220642,-0.3300128281116486,-0.8649683594703674,-10.7564811706543,-6.095298767089844,-11.11475372314453,-1,2,67181.30441016666,unknown,2,2025-05-14T21:35:40.086+09:00,2025-05-14T21:29:57.482+09:00,149,1.61171,0,0,105.3387,0,0,2025-05-14T21:34:34.323+09:00,67179.785067,0,-0.1109772,101.6852,1747226139.460134,0.0.0.0,192.0.0.2,my_iOS_device,0,1,1747226139.453125,1,0.4,0
2025-05-14T21:35:40.815+09:00,41,1747226136.588171,35.65715016444047,139.701000684363,27.74336,-1,-1,-1,-1,30,37.08792774218872,-9999,1747226140.805671,-10.57451629638672,-5.918735504150391,-11.14037322998047,92.81906127929688,100.7876739501953,14.2418909072876,67182.03650616667,-0.393951416015625,-0.437042236328125,-0.7900543212890625,67182.03151716667,-0.3565179109573364,0.3984062373638153,0.2813597619533539,67182.02712616666,51.09039306640625,-55.1614990234375,-131.3609466552734,67182.02029216666,0.3480199943832076,-0.421237322998174,0.3329627948115224,-0.221262201666832,0.3788282871246338,0.3279530704021454,-0.03617453575134277,-0.09416085481643677,0.03171348571777344,XArbitraryCorrectedZVertical,0.1952998200472771,-0.1750043376301766,0.1328447030321966,0.9558158574484636,-0.386432945728302,-0.3268445432186127,-0.8624629378318787,-10.57451629638672,-5.918735504150391,-11.14037322998047,-1,2,67181.30441016666,unknown,2,2025-05-14T21:35:40.086+09:00,2025-05-14T21:29:57.482+09:00,149,1.61171,0,0,105.3387,0,0,2025-05-14T21:34:34.323+09:00,67179.785067,0,-0.1109772,101.6852,1747226139.460134,0.0.0.0,192.0.0.2,my_iOS_device,0,1,1747226139.453125,1,0.4,0
2025-05-14T21:35:40.850+09:00,42,1747226136.588171,35.65715016444047,139.701000684363,27.74336,-1,-1,-1,-1,30,37.08792774218872,-9999,1747226140.845513,-10.5085334777832,-5.574184417724609,-11.68871307373047,92.33077239990234,100.2993850708008,14.24195671081543,67182.07018016667,-0.430084228515625,-0.36712646484375,-0.8272705078125,67182.06519116666,-0.2895159721374512,0.2925027012825012,0.1577635258436203,67182.05744416667,51.32102966308594,-54.63693237304688,-131.6379547119141,67182.02029216666,0.3480199943832076,-0.421237322998174,0.3329627948115224,-0.221262201666832,0.3788282871246338,0.3279530704021454,-0.03617453575134277,-0.09416085481643677,0.03171348571777344,XArbitraryCorrectedZVertical,0.1952998200472771,-0.1750043376301766,0.1328447030321966,0.9558158574484636,-0.386432945728302,-0.3268445432186127,-0.8624629378318787,-10.57451629638672,-5.918735504150391,-11.14037322998047,-1,2,67181.30441016666,unknown,2,2025-05-14T21:35:40.086+09:00,2025-05-14T21:29:57.482+09:00,149,1.61171,0,0,105.3387,0,0,2025-05-14T21:34:34.323+09:00,67179.785067,0,-0.1109772,101.6852,1747226139.460134,0.0.0.0,192.0.0.2,my_iOS_device,0,1,1747226139.453125,1,0.4,0
2025-05-14T21:35:40.885+09:00,43,1747226136.588171,35.65715016444047,139.701000684363,27.74336,-1,-1,-1,-1,30,37.08792774218872,-9999,1747226140.865427,-10.37766647338867,-5.547809600830078,-11.90402984619141,92.19835662841797,100.1669692993164,14.24197483062744,67182.10385416666,-0.4227142333984375,-0.29736328125,-0.823272705078125,67182.09886516667,0.138978123664856,-0.07670756429433823,0.05405844002962112,67182.08776616667,51.43658447265625,-54.37037658691406,-132.0351867675781,67182.08015716667,0.3521444047752554,-0.4028928517584987,0.3105034753719451,-0.101227805018425,0.2088362574577332,0.08463527262210846,-0.06117749214172363,-0.05757546424865723,0.03893387317657471,XArbitraryCorrectedZVertical,0.1837860131274423,-0.1680862487203209,0.1390967391788344,0.9584477253134009,-0.3733318448066711,-0.3055380880832672,-0.8759394288063049,-10.37449645996094,-5.532661437988281,-11.90386199951172,-1,2,67181.30441016666,unknown,2,2025-05-14T21:35:40.086+09:00,2025-05-14T21:29:57.482+09:00,149,1.61171,0,0,105.3387,0,0,2025-05-14T21:34:34.323+09:00,67179.785067,0,-0.1109772,101.6852,1747226139.460134,0.0.0.0,192.0.0.2,my_iOS_device,0,1,1747226139.453125,1,0.4,0
2025-05-14T21:35:40.920+09:00,44,1747226136.588171,35.65715016444047,139.701000684363,27.74336,-1,-1,-1,-1,30,37.08792774218872,-9999,1747226140.905581,-10.29550552368164,-5.66046142578125,-11.85269927978516,91.96099853515625,99.92961120605469,14.24201202392578,67182.13752816667,-0.4417724609375,-0.3497467041015625,-0.8361358642578125,67182.13253916668,0.2877279222011566,-0.3100822269916534,0.09377123415470123,67182.11808816667,51.56678771972656,-54.7396240234375,-131.7458801269531,67182.08015716667,0.3521444047752554,-0.4028928517584987,0.3105034753719451,-0.101227805018425,0.2088362574577332,0.08463527262210846,-0.06117749214172363,-0.05757546424865723,0.03893387317657471,XArbitraryCorrectedZVertical,0.1837860131274423,-0.1680862487203209,0.1390967391788344,0.9584477253134009,-0.3733318448066711,-0.3055380880832672,-0.8759394288063049,-10.37449645996094,-5.532661437988281,-11.90386199951172,-1,2,67181.30441016666,unknown,2,2025-05-14T21:35:40.086+09:00,2025-05-14T21:29:57.482+09:00,149,1.61171,0,0,105.3387,0,0,2025-05-14T21:34:34.323+09:00,67179.785067,0,-0.1109772,101.6852,1747226139.460134,0.0.0.0,192.0.0.2,my_iOS_device,0,1,1747226139.453125,1,0.4,0
2025-05-14T21:35:40.950+09:00,45,1747226136.588171,35.65715016444047,139.701000684363,27.74336,-1,-1,-1,-1,30,37.08792774218872,-9999,1747226140.94546,-10.70031356811523,-5.530086517333984,-11.79750823974609,91.83336639404297,99.80197906494141,14.24201965332031,67182.17120216668,-0.42376708984375,-0.3188018798828125,-0.82049560546875,67182.16621316667,0.1507927030324936,-0.3018224239349365,0.01033146679401398,67182.14841216667,51.21180725097656,-54.65591430664062,-131.7653961181641,67182.14002216667,0.3617125191254891,-0.4140018308076124,0.3180774757247041,0.2640326619148254,-0.3219720721244812,0.08255316317081451,-0.05993440747261047,-0.02220472693443298,0.03905868530273438,XArbitraryCorrectedZVertical,0.1889621582389211,-0.1717441795898629,0.1417923760361656,0.9563954133171781,-0.3820974826812744,-0.3127410411834717,-0.8695944547653198,-10.56032562255859,-5.787315368652344,-11.82009124755859,-1,2,67181.30441016666,unknown,2,2025-05-14T21:35:40.086+09:00,2025-05-14T21:29:57.482+09:00,149,1.61171,0,0,105.3387,0,0,2025-05-14T21:34:34.323+09:00,67179.785067,0,-0.1109772,101.6852,1747226139.460134,0.0.0.0,192.0.0.2,my_iOS_device,0,1,1747226139.453125,1,0.4,0
2025-05-14T21:35:40.985+09:00,46,1747226136.588171,35.65715016444047,139.701000684363,27.74336,-1,-1,-1,-1,30,37.08792774218872,-9999,1747226140.965454,-10.72793579101562,-5.598785400390625,-11.70050811767578,91.84735107421875,99.81596374511719,14.24202060699463,67182.20487616667,-0.449005126953125,-0.32464599609375,-0.9071044921875,67182.19988716667,0.06147135049104691,-0.0825316309928894,0.01419704500585794,67182.17873716667,51.04624938964844,-54.65516662597656,-131.6419677734375,67182.19988716667,0.3671135975766709,-0.43313924317142,0.32577490823367,0.06137269735336304,-0.09021764993667603,0.01761503145098686,-0.03262129426002502,0.004903137683868408,-0.009563446044921875,XArbitraryCorrectedZVertical,0.1944217460583523,-0.1795655053173804,0.1416429325300456,0.9538835271590613,-0.3976460993289948,-0.3200430274009705,-0.8599128127098083,-10.73131561279297,-5.510177612304688,-11.57819366455078,-1,2,67181.30441016666,unknown,2,2025-05-14T21:35:40.086+09:00,2025-05-14T21:29:57.482+09:00,149,1.61171,0,0,105.3387,0,0,2025-05-14T21:34:34.323+09:00,67179.785067,0,-0.1109772,101.6852,1747226139.460134,0.0.0.0,192.0.0.2,my_iOS_device,0,1,1747226139.453125,1,0.4,0
2025-05-14T21:35:41.020+09:00,47,1747226136.588171,35.65715016444047,139.701000684363,27.74336,-1,-1,-1,-1,30,37.08792774218872,-9999,1747226141.005338,-10.63977432250977,-5.785648345947266,-11.66341400146484,91.79312133789062,99.76173400878906,14.24203300476074,67182.238550375,-0.4075927734375,-0.313446044921875,-0.8382415771484375,67182.23356116666,-0.08355108648538589,0.2019621580839157,0.05998983234167099,67182.23938537501,51.19703674316406,-54.85050964355469,-131.6075897216797,67182.19988716667,0.3671135975766709,-0.43313924317142,0.32577490823367,0.06137269735336304,-0.09021764993667603,0.01761503145098686,-0.03262129426002502,0.004903137683868408,-0.009563446044921875,XArbitraryCorrectedZVertical,0.1944217460583523,-0.1795655053173804,0.1416429325300456,0.9538835271590613,-0.3976460993289948,-0.3200430274009705,-0.8599128127098083,-10.73131561279297,-5.510177612304688,-11.57819366455078,-1,2,67181.30441016666,unknown,2,2025-05-14T21:35:40.086+09:00,2025-05-14T21:29:57.482+09:00,149,1.61171,0,0,105.3387,0,0,2025-05-14T21:34:34.323+09:00,67179.785067,0,-0.1109772,101.6852,1747226139.460134,0.0.0.0,192.0.0.2,my_iOS_device,0,1,1747226139.453125,1,0.4,0
2025-05-14T21:35:41.055+09:00,48,1747226136.588171,35.65715016444047,139.701000684363,27.74336,-1,-1,-1,-1,30,37.08792774218872,-9999,1747226141.045203,-10.7966423034668,-5.850933074951172,-11.33232879638672,91.65882873535156,99.62744140625,14.24208736419678,67182.27222537501,-0.4030914306640625,-0.35675048828125,-0.82708740234375,67182.267236375,0.02111860178411007,-0.03227937594056129,-0.02153485268354416,67182.269711375,51.01681518554688,-55.13563537597656,-131.1717987060547,67182.259752375,0.3686677325166688,-0.4273810674820703,0.3225171687054214,-0.02318868599832058,-0.008951423689723015,0.02816925011575222,-0.0007876157760620117,-0.006378918886184692,0.05530178546905518,XArbitraryCorrectedZVertical,0.1926163464121867,-0.1770103741143479,0.1433258979095562,0.954475815995659,-0.3931180536746979,-0.3169549405574799,-0.8631325364112854,-10.7966423034668,-5.850933074951172,-11.33232879638672,-1,2,67181.30441016666,unknown,2,2025-05-14T21:35:40.086+09:00,2025-05-14T21:29:57.482+09:00,149,1.61171,0,0,105.3387,0,0,2025-05-14T21:34:34.323+09:00,67179.785067,0,-0.1109772,101.6852,1747226139.460134,0.0.0.0,192.0.0.2,my_iOS_device,0,1,1747226139.453125,1,0.4,0
2025-05-14T21:35:41.085+09:00,49,1747226136.588171,35.65715016444047,139.701000684363,27.74336,-1,-1,-1,-1,30,37.08792774218872,-9999,1747226141.065173,-10.66768264770508,-5.894569396972656,-11.45906829833984,91.7235107421875,99.69212341308594,14.24209785461426,67182.30589837501,-0.3621826171875,-0.31256103515625,-0.8390350341796875,67182.300909375,0.2271681725978851,-0.2533632814884186,-0.05682866275310516,67182.30003737501,51.18685913085938,-54.9581298828125,-131.4966583251953,67182.259752375,0.3686677325166688,-0.4273810674820703,0.3225171687054214,-0.02318868599832058,-0.008951423689723015,0.02816925011575222,-0.0007876157760620117,-0.006378918886184692,0.05530178546905518,XArbitraryCorrectedZVertical,0.1926163464121867,-0.1770103741143479,0.1433258979095562,0.954475815995659,-0.3931180536746979,-0.3169549405574799,-0.8631325364112854,-10.7966423034668,-5.850933074951172,-11.33232879638672,-1,2,67181.30441016666,unknown,2,2025-05-14T21:35:40.086+09:00,2025-05-14T21:29:57.482+09:00,149,1.61171,0,0,105.3387,0,0,2025-05-14T21:34:34.323+09:00,67179.785067,0,-0.1109772,101.6852,1747226139.460134,0.0.0.0,192.0.0.2,my_iOS_device,0,1,1747226139.453125,1,0.4,0
2025-05-14T21:35:41.120+09:00,50,1747226136.588171,35.65715016444047,139.701000684363,27.74336,-1,-1,-1,-1,30,37.08792774218872,-9999,1747226141.104961,-10.80695724487305,-5.928668975830078,-11.67327117919922,91.78781890869141,99.75643157958984,14.24209117889404,67182.339572375,-0.3925628662109375,-0.3334808349609375,-0.87274169921875,67182.334584375,0.1302600055932999,-0.01128887385129929,0.04805780574679375,67182.33036037501,50.76643371582031,-54.81748962402344,-131.6361083984375,67182.319617375,0.3702505288397767,-0.4384256636268274,0.3318127277058079,0.2117720991373062,-0.1806625425815582,0.01985706575214863,0.04234990477561951,0.01492053270339966,0.0153353214263916,XArbitraryCorrectedZVertical,0.1979183027166871,-0.1811397533960624,0.1418984059185523,0.9528282416450397,-0.4013587236404419,-0.3257574141025543,-0.8560334444046021,-10.80695724487305,-5.928668975830078,-11.67327117919922,-1,2,67181.30441016666,unknown,2,2025-05-14T21:35:40.086+09:00,2025-05-14T21:29:57.482+09:00,149,1.61171,0,0,105.3387,0,0,2025-05-14T21:34:34.323+09:00,67179.785067,0,-0.1109772,101.6852,1747226139.460134,0.0.0.0,192.0.0.2,my_iOS_device,0,1,1747226139.453125,1,0.4,0
2025-05-14T21:35:41.154+09:00,51,1747226136.588171,35.65715016444047,139.701000684363,27.74336,-1,-1,-1,-1,30,37.08792774218872,-9999,1747226141.144906,-10.90491485595703,-5.790592193603516,-11.49305725097656,91.57840728759766,99.54701995849609,14.24206352233887,67182.373247375,-0.3664398193359375,-0.347900390625,-0.8454437255859375,67182.36825837501,0.06134218722581863,-0.02837065421044827,0.1148376390337944,67182.360686375,50.88200378417969,-54.85226440429688,-131.4149780273438,67182.319617375,0.3702505288397767,-0.4384256636268274,0.3318127277058079,0.2117720991373062,-0.1806625425815582,0.01985706575214863,0.04234990477561951,0.01492053270339966,0.0153353214263916,XArbitraryCorrectedZVertical,0.1979183027166871,-0.1811397533960624,0.1418984059185523,0.9528282416450397,-0.4013587236404419,-0.3257574141025543,-0.8560334444046021,-10.80695724487305,-5.928668975830078,-11.67327117919922,-1,2,67181.30441016666,unknown,2,2025-05-14T21:35:40.086+09:00,2025-05-14T21:29:57.482+09:00,149,1.61171,0,0,105.3387,0,0,2025-05-14T21:34:34.323+09:00,67179.785067,0,-0.1109772,101.6852,1747226139.460134,0.0.0.0,192.0.0.2,my_iOS_device,0,1,1747226139.453125,1,0.4,0
2025-05-14T21:35:41.189+09:00,52,1747226136.588171,35.65715016444047,139.701000684363,27.74336,-1,-1,-1,-1,30,37.08792774218872,-9999,1747226141.184967,-10.73201370239258,-5.805625915527344,-11.34275817871094,91.36997222900391,99.33858489990234,14.24203300476074,67182.406921375,-0.37725830078125,-0.3590545654296875,-0.8195343017578125,67182.40193237501,0.1658398360013962,-0.1483260840177536,0.01952017098665237,67182.39101037501,50.84440612792969,-54.73446655273438,-131.4955291748047,67182.37948237501,0.3772012674177304,-0.4415365373649203,0.3347837906517062,0.1007446348667145,-0.03551121056079865,0.1036856546998024,0.03461635112762451,-0.01787069439888,0.008641421794891357,XArbitraryCorrectedZVertical,0.2001661743539022,-0.1816108922488438,0.1445397830987125,0.9518715413119938,-0.4036044180393219,-0.3285649716854095,-0.8539019823074341,-10.85977554321289,-5.699958801269531,-11.49864196777344,-1,2,67181.30441016666,unknown,2,2025-05-14T21:35:40.086+09:00,2025-05-14T21:29:57.482+09:00,149,1.61171,0,0,105.3387,0,0,2025-05-14T21:34:34.323+09:00,67179.785067,0,-0.1109772,101.6852,1747226139.460134,0.0.0.0,192.0.0.2,my_iOS_device,0,1,1747226139.453125,1,0.4,0
2025-05-14T21:35:41.220+09:00,53,1747226136.588171,35.65715016444047,139.701000684363,27.74336,-1,-1,-1,-1,30,37.08792774218872,-9999,1747226141.204911,-10.88298416137695,-5.945812225341797,-11.31570434570312,91.35857391357422,99.32718658447266,14.24200439453125,67182.44059537501,-0.3871917724609375,-0.336029052734375,-0.849151611328125,67182.435606375,0.2049872428178787,-0.3031545579433441,0.03021409548819065,67182.421334375,50.86761474609375,-55.15145874023438,-131.2281341552734,67182.37948237501,0.3772012674177304,-0.4415365373649203,0.3347837906517062,0.1007446348667145,-0.03551121056079865,0.1036856546998024,0.03461635112762451,-0.01787069439888,0.008641421794891357,XArbitraryCorrectedZVertical,0.2001661743539022,-0.1816108922488438,0.1445397830987125,0.9518715413119938,-0.4036044180393219,-0.3285649716854095,-0.8539019823074341,-10.85977554321289,-5.699958801269531,-11.49864196777344,-1,2,67181.30441016666,unknown,2,2025-05-14T21:35:40.086+09:00,2025-05-14T21:29:57.482+09:00,149,1.61171,0,0,105.3387,0,0,2025-05-14T21:34:34.323+09:00,67179.785067,0,-0.1109772,101.6852,1747226139.460134,0.0.0.0,192.0.0.2,my_iOS_device,0,1,1747226139.453125,1,0.4,0
2025-05-14T21:35:41.254+09:00,54,1747226136.588171,35.65715016444047,139.701000684363,27.74336,-1,-1,-1,-1,30,37.08792774218872,-9999,1747226141.244867,-10.83335113525391,-6.077037811279297,-10.88713073730469,91.25762939453125,99.22624206542969,14.24189186096191,67182.474269375,-0.4127349853515625,-0.36212158203125,-0.8613128662109375,67182.46928037501,0.08383604139089584,-0.002644252730533481,0.07588038593530655,67182.45165837501,50.80613708496094,-54.96109008789062,-130.7063140869141,67182.439348375,0.3837953573413738,-0.455160827143268,0.3428518363969565,0.2101141363382339,-0.2893619537353516,0.03931601718068123,0.04749014973640442,-0.0006635785102844238,0.01786684989929199,XArbitraryCorrectedZVertical,0.2055385791718549,-0.1865372646262879,0.1452992737599455,0.9496557147012751,-0.4140215814113617,-0.3361743092536926,-0.8459154963493347,-10.9754638671875,-5.926509857177734,-11.13104248046875,-1,2,67181.30441016666,unknown,2,2025-05-14T21:35:40.086+09:00,2025-05-14T21:29:57.482+09:00,149,1.61171,0,0,105.3387,0,0,2025-05-14T21:34:34.323+09:00,67179.785067,0,-0.1109772,101.6852,1747226139.460134,0.0.0.0,192.0.0.2,my_iOS_device,0,1,1747226139.453125,1,0.4,0
2025-05-14T21:35:41.289+09:00,55,1747226136.588171,35.65715016444047,139.701000684363,27.74336,-1,-1,-1,-1,30,37.08792774218872,-9999,1747226141.284798,-10.93335342407227,-5.894031524658203,-10.97560119628906,91.00692749023438,98.97554016113281,14.24184322357178,67182.50794337501,-0.3949737548828125,-0.3302001953125,-0.84814453125,67182.502954375,0.06879983842372894,-0.04186675697565079,0.1143132597208023,67182.48198137501,50.80982971191406,-55.09320068359375,-130.776611328125,67182.49921337501,0.3909902565227874,-0.4616222700077252,0.3460581989212912,0.04217064008116722,-0.03524964302778244,0.1187345832586288,0.0253959596157074,0.0009353756904602051,-0.001725554466247559,XArbitraryCorrectedZVertical,0.2081837600327466,-0.1885016983244202,0.147641285444801,0.9483294921111076,-0.4189964830875397,-0.3391923308372498,-0.8422532677650452,-10.92798614501953,-5.943614959716797,-10.93757629394531,-1,2,67181.30441016666,unknown,2,2025-05-14T21:35:40.086+09:00,2025-05-14T21:29:57.482+09:00,149,1.61171,0,0,105.3387,0,0,2025-05-14T21:34:34.323+09:00,67179.785067,0,-0.1109772,101.6852,1747226139.460134,0.0.0.0,192.0.0.2,my_iOS_device,0,1,1747226139.453125,1,0.4,0
2025-05-14T21:35:41.324+09:00,56,1747226136.588171,35.65715016444047,139.701000684363,27.74336,-1,-1,-1,-1,30,37.08792774218872,-9999,1747226141.304452,-10.9337272644043,-5.903579711914062,-10.90443420410156,90.8629150390625,98.83152770996094,14.24181652069092,67182.54161837501,-0.454345703125,-0.440032958984375,-0.72637939453125,67182.536629375,-0.3537386357784271,0.1527237594127655,0.07096897810697556,67182.542628375,50.89424133300781,-54.80293273925781,-131.0461578369141,67182.49921337501,0.3909902565227874,-0.4616222700077252,0.3460581989212912,0.04217064008116722,-0.03524964302778244,0.1187345832586288,0.0253959596157074,0.0009353756904602051,-0.001725554466247559,XArbitraryCorrectedZVertical,0.2081837600327466,-0.1885016983244202,0.147641285444801,0.9483294921111076,-0.4189964830875397,-0.3391923308372498,-0.8422532677650452,-10.92798614501953,-5.943614959716797,-10.93757629394531,-1,2,67181.30441016666,unknown,2,2025-05-14T21:35:40.086+09:00,2025-05-14T21:29:57.482+09:00,149,1.61171,0,0,105.3387,0,0,2025-05-14T21:34:34.323+09:00,67179.785067,0,-0.1109772,101.6852,1747226139.460134,0.0.0.0,192.0.0.2,my_iOS_device,0,1,1747226139.453125,1,0.4,0
2025-05-14T21:35:41.354+09:00,57,1747226136.588171,35.65715016444047,139.701000684363,27.74336,-1,-1,-1,-1,30,37.08792774218872,-9999,1747226141.344541,-10.79624176025391,-5.710174560546875,-11.00558471679688,90.83163452148438,98.80024719238281,14.24168491363525,67182.575291375,-0.4247894287109375,-0.29815673828125,-0.8720550537109375,67182.57030237501,-0.06144871190190315,0.008241950534284115,-0.00683180708438158,67182.572953375,50.76972961425781,-55.00517272949219,-130.7452697753906,67182.55907837501,0.3903728320782135,-0.4539288109485014,0.3336687171855752,-0.3459144830703735,0.1147008687257767,0.05062607675790787,-0.06009569764137268,-0.0681794285774231,0.1300323009490967,XArbitraryCorrectedZVertical,0.2017669589347689,-0.1863014768135059,0.1496937783878879,0.9498283259056532,-0.4143153429031372,-0.3275116086006165,-0.8491637110710144,-10.78904342651367,-5.77984619140625,-10.97196960449219,-1,2,67181.30441016666,unknown,2,2025-05-14T21:35:40.086+09:00,2025-05-14T21:29:57.482+09:00,149,1.61171,0,0,105.3387,0,0,2025-05-14T21:34:34.323+09:00,67179.785067,0,-0.1109772,101.6852,1747226139.460134,0.0.0.0,192.0.0.2,my_iOS_device,0,1,1747226139.453125,1,0.4,0
2025-05-14T21:35:41.490+09:00,58,1747226136.588171,35.65715016444047,139.701000684363,27.74336,-1,-1,-1,-1,30,37.08792774218872,-9999,1747226141.484226,-10.64886093139648,-5.664890289306641,-11.18402099609375,90.60639190673828,98.57500457763672,14.24124526977539,67182.608966375,-0.408111572265625,-0.2910614013671875,-0.8582611083984375,67182.60397737501,0.2734874784946442,-0.2370698004961014,-0.00552312983199954,67182.603276375,50.81596374511719,-54.9066162109375,-130.8543243408203,67182.55907837501,0.3903728320782135,-0.4539288109485014,0.3336687171855752,-0.3459144830703735,0.1147008687257767,0.05062607675790787,-0.06009569764137268,-0.0681794285774231,0.1300323009490967,XArbitraryCorrectedZVertical,0.2017669589347689,-0.1863014768135059,0.1496937783878879,0.9498283259056532,-0.4143153429031372,-0.3275116086006165,-0.8491637110710144,-10.78904342651367,-5.77984619140625,-10.97196960449219,-1,2,67181.30441016666,unknown,2,2025-05-14T21:35:40.086+09:00,2025-05-14T21:29:57.482+09:00,149,1.61171,0,0,105.3387,0,0,2025-05-14T21:34:34.323+09:00,67179.785067,0,-0.1109772,101.6852,1747226139.460134,0.0.0.0,192.0.0.2,my_iOS_device,0,1,1747226139.453125,1,0.4,0
2025-05-14T21:35:41.492+09:00,59,1747226136.588171,35.65715016444047,139.701000684363,27.74336,-1,-1,-1,-1,30,37.08792774218872,-9999,1747226141.484226,-10.64886093139648,-5.664890289306641,-11.18402099609375,90.60639190673828,98.57500457763672,14.24124526977539,67182.64264037501,-0.4586944580078125,-0.3450164794921875,-0.8717803955078125,67182.637651375,0.0793084055185318,0.04674353823065758,0.04734461382031441,67182.633600375,50.75750732421875,-54.98939514160156,-130.7910308837891,67182.618943375,0.3936277148014978,-0.4618045641929932,0.340898017998425,0.1994043290615082,-0.1714469343423843,0.03823752328753471,0.006685703992843628,0.04180720448493958,-0.01588648557662964,XArbitraryCorrectedZVertical,0.2060385829102778,-0.1888962903011052,0.1495272336342855,0.9484239363360418,-0.4199242889881134,-0.3343335688114166,-0.8437325954437256,-11.00277709960938,-5.755157470703125,-10.79177856445312,-1,2,67181.30441016666,unknown,2,2025-05-14T21:35:40.086+09:00,2025-05-14T21:29:57.482+09:00,149,1.61171,0,0,105.3387,0,0,2025-05-14T21:34:34.323+09:00,67179.785067,0,-0.1109772,101.6852,1747226139.460134,0.0.0.0,192.0.0.2,my_iOS_device,0,1,1747226139.453125,1,0.4,0
2025-05-14T21:35:41.492+09:00,60,1747226136.588171,35.65715016444047,139.701000684363,27.74336,-1,-1,-1,-1,30,37.08792774218872,-9999,1747226141.484226,-10.64886093139648,-5.664890289306641,-11.18402099609375,90.60639190673828,98.57500457763672,14.24124526977539,67182.676314375,-0.4427337646484375,-0.351318359375,-0.8506927490234375,67182.671326375,-0.08338410407304764,0.2436102628707886,0.01300714537501335,67182.663925375,50.78639221191406,-54.82475280761719,-130.5333404541016,67182.618943375,0.3936277148014978,-0.4618045641929932,0.340898017998425,0.1994043290615082,-0.1714469343423843,0.03823752328753471,0.006685703992843628,0.04180720448493958,-0.01588648557662964,XArbitraryCorrectedZVertical,0.2060385829102778,-0.1888962903011052,0.1495272336342855,0.9484239363360418,-0.4199242889881134,-0.3343335688114166,-0.8437325954437256,-11.00277709960938,-5.755157470703125,-10.79177856445312,-1,2,67181.30441016666,unknown,2,2025-05-14T21:35:40.086+09:00,2025-05-14T21:29:57.482+09:00,149,1.61171,0,0,105.3387,0,0,2025-05-14T21:34:34.323+09:00,67179.785067,0,-0.1109772,101.6852,1747226139.460134,0.0.0.0,192.0.0.2,my_iOS_device,0,1,1747226139.453125,1,0.4,0
2025-05-14T21:35:41.492+09:00,61,1747226136.588171,35.65715016444047,139.701000684363,27.74336,-1,-1,-1,-1,30,37.08792774218872,-9999,1747226141.484226,-10.64886093139648,-5.664890289306641,-11.18402099609375,90.60639190673828,98.57500457763672,14.24124526977539,67182.70998837501,-0.4311676025390625,-0.3724517822265625,-0.8394012451171875,67182.704999375,-0.1083946526050568,0.3785749971866608,-0.06312597543001175,67182.69425137501,51.00051879882812,-54.74813842773438,-131.1560211181641,67182.678808375,0.3962309845143141,-0.4564812503447856,0.3411281038144973,-0.08379735797643661,0.2675049304962158,-0.0009804554283618927,-0.02828687429428101,-0.01600512862205505,-0.0001212954521179199,XArbitraryCorrectedZVertical,0.2059896603650918,-0.1860773458989335,0.1512812342124122,0.9487137006029562,-0.4153929948806763,-0.3345504105091095,-0.8458869457244873,-10.96711349487305,-5.979701995849609,-10.39569091796875,-1,2,67181.30441016666,unknown,2,2025-05-14T21:35:40.086+09:00,2025-05-14T21:29:57.482+09:00,149,1.61171,0,0,105.3387,0,0,2025-05-14T21:34:34.323+09:00,67179.785067,0,-0.1109772,101.6852,1747226139.460134,0.0.0.0,192.0.0.2,my_iOS_device,0,1,1747226139.453125,1,0.4,0
2025-05-14T21:35:41.524+09:00,62,1747226136.588171,35.65715016444047,139.701000684363,27.74336,-1,-1,-1,-1,30,37.08792774218872,-9999,1747226141.504123,-10.80004119873047,-5.739612579345703,-11.13301086425781,90.64229583740234,98.61090850830078,14.24126434326172,67182.74366237501,-0.4185943603515625,-0.361541748046875,-0.837646484375,67182.73867437501,-0.1835727542638779,0.373511791229248,-0.1053490564227104,67182.72457437501,51.20230102539062,-54.82008361816406,-130.9640655517578,67182.73867437501,0.3893668409274674,-0.4328101036248234,0.3355876523693158,-0.1836530566215515,0.3658225536346436,-0.1019405350089073,-0.02337640523910522,-0.03249242901802063,0.03113216161727905,XArbitraryCorrectedZVertical,0.2009862957502656,-0.1761499559373609,0.1511076875321685,0.9517049946199959,-0.3960267305374146,-0.3293240964412689,-0.8571513891220093,-10.61665344238281,-5.811859130859375,-11.06906127929688,-1,2,67181.30441016666,unknown,2,2025-05-14T21:35:40.086+09:00,2025-05-14T21:29:57.482+09:00,149,1.61171,0,0,105.3387,0,0,2025-05-14T21:34:34.323+09:00,67179.785067,0,-0.1109772,101.6852,1747226139.460134,0.0.0.0,192.0.0.2,my_iOS_device,0,1,1747226139.453125,1,0.4,0
2025-05-14T21:35:41.559+09:00,63,1747226136.588171,35.65715016444047,139.701000684363,27.74336,-1,-1,-1,-1,30,37.08792774218872,-9999,1747226141.544244,-10.44275283813477,-5.806865692138672,-11.26144409179688,90.80902099609375,98.77763366699219,14.24130439758301,67182.77733737501,-0.4046630859375,-0.3435821533203125,-0.8612213134765625,67182.772348375,-0.07839147746562958,0.3423152565956116,-0.1178882867097855,67182.75489937501,51.36305236816406,-54.94178771972656,-131.2633361816406,67182.73867437501,0.3893668409274674,-0.4328101036248234,0.3355876523693158,-0.1836530566215515,0.3658225536346436,-0.1019405350089073,-0.02337640523910522,-0.03249242901802063,0.03113216161727905,XArbitraryCorrectedZVertical,0.2009862957502656,-0.1761499559373609,0.1511076875321685,0.9517049946199959,-0.3960267305374146,-0.3293240964412689,-0.8571513891220093,-10.61665344238281,-5.811859130859375,-11.06906127929688,-1,2,67181.30441016666,unknown,2,2025-05-14T21:35:40.086+09:00,2025-05-14T21:29:57.482+09:00,149,1.61171,0,0,105.3387,0,0,2025-05-14T21:34:34.323+09:00,67179.785067,0,-0.1109772,101.6852,1747226139.460134,0.0.0.0,192.0.0.2,my_iOS_device,0,1,1747226139.453125,1,0.4,0
2025-05-14T21:35:41.593+09:00,64,1747226136.588171,35.65715016444047,139.701000684363,27.74336,-1,-1,-1,-1,30,37.08792774218872,-9999,1747226141.584111,-10.57394027709961,-5.676570892333984,-11.56300354003906,90.97672271728516,98.94533538818359,14.24135589599609,67182.811011375,-0.4034576416015625,-0.369537353515625,-0.8670501708984375,67182.80602237501,-0.0754055380821228,0.3957356214523315,-0.1435236036777496,67182.785223375,51.15850830078125,-54.67572021484375,-131.4592437744141,67182.798539375,0.3801287221399669,-0.4090532487681621,0.3329111046742331,-0.06186505034565926,0.3617525100708008,-0.1318727135658264,-0.02384689450263977,-0.0255298912525177,0.004177093505859375,XArbitraryCorrectedZVertical,0.1971534339921821,-0.1660398006380832,0.1493817913885983,0.9545923645316208,-0.37590292096138,-0.3267956674098969,-0.8671225905418396,-10.57394027709961,-5.676570892333984,-11.56300354003906,-1,2,67181.30441016666,unknown,2,2025-05-14T21:35:40.086+09:00,2025-05-14T21:29:57.482+09:00,149,1.61171,0,0,105.3387,0,0,2025-05-14T21:34:34.323+09:00,67179.785067,0,-0.1109772,101.6852,1747226139.460134,0.0.0.0,192.0.0.2,my_iOS_device,0,1,1747226139.453125,1,0.4,0
2025-05-14T21:35:41.624+09:00,65,1747226136.588171,35.65715016444047,139.701000684363,27.74336,-1,-1,-1,-1,30,37.08792774218872,-9999,1747226141.603999,-10.41497802734375,-5.648029327392578,-11.45082092285156,91.09016418457031,99.05877685546875,14.24139308929443,67182.84468537501,-0.355499267578125,-0.375030517578125,-0.85272216796875,67182.839696375,-0.1626754701137543,0.3742747902870178,-0.1815692633390427,67182.81554737501,51.31060791015625,-54.68058776855469,-131.4107360839844,67182.798539375,0.3801287221399669,-0.4090532487681621,0.3329111046742331,-0.06186505034565926,0.3617525100708008,-0.1318727135658264,-0.02384689450263977,-0.0255298912525177,0.004177093505859375,XArbitraryCorrectedZVertical,0.1971534339921821,-0.1660398006380832,0.1493817913885983,0.9545923645316208,-0.37590292096138,-0.3267956674098969,-0.8671225905418396,-10.57394027709961,-5.676570892333984,-11.56300354003906,-1,2,67181.30441016666,unknown,2,2025-05-14T21:35:40.086+09:00,2025-05-14T21:29:57.482+09:00,149,1.61171,0,0,105.3387,0,0,2025-05-14T21:34:34.323+09:00,67179.785067,0,-0.1109772,101.6852,1747226139.460134,0.0.0.0,192.0.0.2,my_iOS_device,0,1,1747226139.453125,1,0.4,0
2025-05-14T21:35:41.660+09:00,66,1747226136.588171,35.65715016444047,139.701000684363,27.74336,-1,-1,-1,-1,30,37.08792774218872,-9999,1747226141.643919,-10.24038696289062,-5.667251586914062,-11.80251312255859,91.47161865234375,99.44023132324219,14.24147701263428,67182.878359375,-0.351226806640625,-0.360992431640625,-0.8876800537109375,67182.873371375,-0.009637180715799332,0.3210475146770477,-0.2850759327411652,67182.87619737501,51.67768859863281,-54.70106506347656,-131.6024017333984,67182.858404375,0.3669241325732442,-0.3821091506281407,0.3302738504957083,-0.08691848069429398,0.3154102563858032,-0.2511577606201172,-0.008221089839935303,-0.04735636711120605,0.01872289180755615,XArbitraryCorrectedZVertical,0.1928597176468895,-0.1547232977531962,0.1459860509477655,0.9578904847807594,-0.3527255952358246,-0.324302077293396,-0.8777316808700562,-10.24038696289062,-5.667251586914062,-11.80251312255859,-1,2,67181.30441016666,unknown,2,2025-05-14T21:35:40.086+09:00,2025-05-14T21:29:57.482+09:00,149,1.61171,0,0,105.3387,0,0,2025-05-14T21:34:34.323+09:00,67179.785067,0,-0.1109772,101.6852,1747226139.460134,0.0.0.0,192.0.0.2,my_iOS_device,0,1,1747226139.453125,1,0.4,0
2025-05-14T21:35:41.693+09:00,67,1747226136.588171,35.65715016444047,139.701000684363,27.74336,-1,-1,-1,-1,30,37.08792774218872,-9999,1747226141.683731,-10.06122970581055,-5.513992309570312,-11.92377471923828,92.00544738769531,99.97406005859375,14.2415771484375,67182.91203437501,-0.327117919921875,-0.3433380126953125,-0.88818359375,67182.907045375,-0.05017422139644623,0.4491104185581207,-0.2869939506053925,67182.906523375,51.77436828613281,-54.70755004882812,-132.0381927490234,67182.858404375,0.3669241325732442,-0.3821091506281407,0.3302738504957083,-0.08691848069429398,0.3154102563858032,-0.2511577606201172,-0.008221089839935303,-0.04735636711120605,0.01872289180755615,XArbitraryCorrectedZVertical,0.1928597176468895,-0.1547232977531962,0.1459860509477655,0.9578904847807594,-0.3527255952358246,-0.324302077293396,-0.8777316808700562,-10.24038696289062,-5.667251586914062,-11.80251312255859,-1,2,67181.30441016666,unknown,2,2025-05-14T21:35:40.086+09:00,2025-05-14T21:29:57.482+09:00,149,1.61171,0,0,105.3387,0,0,2025-05-14T21:34:34.323+09:00,67179.785067,0,-0.1109772,101.6852,1747226139.460134,0.0.0.0,192.0.0.2,my_iOS_device,0,1,1747226139.453125,1,0.4,0
2025-05-14T21:35:41.728+09:00,68,1747226136.588171,35.65715016444047,139.701000684363,27.74336,-1,-1,-1,-1,30,37.08792774218872,-9999,1747226141.723685,-9.775993347167969,-5.559955596923828,-12.13501739501953,92.43665313720703,100.4052658081055,14.24168682098389,67182.945708375,-0.2977142333984375,-0.368743896484375,-0.8485107421875,67182.94071937501,-0.3392254710197449,0.7662540078163147,-0.2574754655361176,67182.93684937501,52.02030944824219,-54.64773559570312,-132.0725555419922,67182.918270375,0.3494406072345493,-0.3541358613361086,0.3345520889796222,-0.1154756471514702,0.5633934140205383,-0.2638658583164215,0.0003441274166107178,-0.01445794105529785,-0.001079440116882324,XArbitraryCorrectedZVertical,0.1915907046470879,-0.1425510561978676,0.1398453271905587,0.9609451669172188,-0.3275536298751831,-0.3283461332321167,-0.8859444260597229,-9.951545715332031,-5.658905029296875,-12.07617950439453,-1,2,67181.30441016666,unknown,2,2025-05-14T21:35:40.086+09:00,2025-05-14T21:29:57.482+09:00,149,1.61171,0,0,105.3387,0,0,2025-05-14T21:34:34.323+09:00,67180.167191,0,-0.1056919,101.6852,1747226139.460134,0.0.0.0,192.0.0.2,my_iOS_device,0,1,1747226139.453125,1,0.4,0
2025-05-14T21:35:41.758+09:00,69,1747226136.588171,35.65715016444047,139.701000684363,27.74336,-1,-1,-1,-1,30,37.08792774218872,-9999,1747226141.743678,-9.551345825195312,-5.685817718505859,-12.11838531494141,92.67701721191406,100.6456298828125,14.24173641204834,67182.97938237501,-0.2655792236328125,-0.32928466796875,-0.8665618896484375,67182.974393375,-0.4681355059146881,0.7552221417427063,-0.3287635147571564,67182.96717437501,52.24417114257812,-54.69863891601562,-132.3483734130859,67182.918270375,0.3494406072345493,-0.3541358613361086,0.3345520889796222,-0.1154756471514702,0.5633934140205383,-0.2638658583164215,0.0003441274166107178,-0.01445794105529785,-0.001079440116882324,XArbitraryCorrectedZVertical,0.1915907046470879,-0.1425510561978676,0.1398453271905587,0.9609451669172188,-0.3275536298751831,-0.3283461332321167,-0.8859444260597229,-9.951545715332031,-5.658905029296875,-12.07617950439453,-1,2,67181.30441016666,unknown,2,2025-05-14T21:35:40.086+09:00,2025-05-14T21:29:57.482+09:00,149,1.61171,0,0,105.3387,0,0,2025-05-14T21:34:34.323+09:00,67180.167191,0,-0.1056919,101.6852,1747226139.460134,0.0.0.0,192.0.0.2,my_iOS_device,0,1,1747226139.453125,1,0.4,0
2025-05-14T21:35:41.793+09:00,70,1747226136.588171,35.65715016444047,139.701000684363,27.74336,-1,-1,-1,-1,30,37.08792774218872,-9999,1747226141.783546,-9.280467987060547,-5.484352111816406,-12.83849334716797,93.25313568115234,101.2217483520508,14.24178695678711,67183.013056375,-0.2147979736328125,-0.276580810546875,-0.8816375732421875,67183.008068375,-0.3370805680751801,0.8055883646011353,-0.2641711831092834,67182.99749937501,52.50267028808594,-54.591796875,-132.8343048095703,67182.978135375,0.3254638606447544,-0.3027786643699111,0.3189358697056749,-0.4426077008247375,0.7535869479179382,-0.3326663374900818,0.01368162035942078,-0.02651649713516235,0.05600303411483765,XArbitraryCorrectedZVertical,0.1790264649178314,-0.1214984813146764,0.1344980071457828,0.9670047384156309,-0.2831366062164307,-0.3135562837123871,-0.9063752889633179,-9.328548431396484,-5.525581359863281,-12.45668792724609,-1,2,67181.30441016666,unknown,2,2025-05-14T21:35:40.086+09:00,2025-05-14T21:29:57.482+09:00,149,1.61171,0,0,105.3387,0,0,2025-05-14T21:34:34.323+09:00,67180.167191,0,-0.1056919,101.6852,1747226139.460134,0.0.0.0,192.0.0.2,my_iOS_device,0,1,1747226139.453125,1,0.4,0
2025-05-14T21:35:41.828+09:00,71,1747226136.588171,35.65715016444047,139.701000684363,27.74336,-1,-1,-1,-1,30,37.08792774218872,-9999,1747226141.823402,-8.781818389892578,-5.483749389648438,-12.84850311279297,93.52334594726562,101.4919586181641,14.24174118041992,67183.046731375,-0.17626953125,-0.252685546875,-0.9069671630859375,67183.041742375,-0.2928249537944794,0.5117961764335632,-0.09089954942464828,67183.027823375,53.01913452148438,-54.60177612304688,-132.6877899169922,67183.038000375,0.3045797873681927,-0.2525473714584644,0.3028552275775218,-0.3089070916175842,0.5242488384246826,-0.09901425987482071,0.06876060366630554,0.05348038673400879,0.04165852069854736,XArbitraryCorrectedZVertical,0.1668029770281861,-0.10035436904059,0.1299940540436269,0.9722177918550298,-0.2384994029998779,-0.2982467114925385,-0.9242115616798401,-8.781818389892578,-5.483749389648438,-12.84850311279297,-1,2,67181.30441016666,unknown,2,2025-05-14T21:35:40.086+09:00,2025-05-14T21:29:57.482+09:00,149,1.61171,0,0,105.3387,0,0,2025-05-14T21:34:34.323+09:00,67180.167191,0,-0.1056919,101.6852,1747226139.460134,0.0.0.0,192.0.0.2,my_iOS_device,0,1,1747226139.453125,1,0.4,0
2025-05-14T21:35:41.863+09:00,72,1747226136.588171,35.65715016444047,139.701000684363,27.74336,-1,-1,-1,-1,30,37.08792774218872,-9999,1747226141.843486,-8.612228393554688,-5.569938659667969,-13.12100982666016,93.57783508300781,101.5464477539062,14.24162578582764,67183.080405375,-0.187591552734375,-0.2912750244140625,-0.883453369140625,67183.075417375,-0.2663802802562714,0.3777845799922943,-0.1362188309431076,67183.058148375,53.21783447265625,-54.68719482421875,-133.0604095458984,67183.038000375,0.3045797873681927,-0.2525473714584644,0.3028552275775218,-0.3089070916175842,0.5242488384246826,-0.09901425987482071,0.06876060366630554,0.05348038673400879,0.04165852069854736,XArbitraryCorrectedZVertical,0.1668029770281861,-0.10035436904059,0.1299940540436269,0.9722177918550298,-0.2384994029998779,-0.2982467114925385,-0.9242115616798401,-8.781818389892578,-5.483749389648438,-12.84850311279297,-1,2,67181.30441016666,unknown,2,2025-05-14T21:35:40.086+09:00,2025-05-14T21:29:57.482+09:00,149,1.61171,0,0,105.3387,0,0,2025-05-14T21:34:34.323+09:00,67180.167191,0,-0.1056919,101.6852,1747226139.460134,0.0.0.0,192.0.0.2,my_iOS_device,0,1,1747226139.453125,1,0.4,0
2025-05-14T21:35:41.893+09:00,73,1747226136.588171,35.65715016444047,139.701000684363,27.74336,-1,-1,-1,-1,30,37.08792774218872,-9999,1747226141.883348,-8.655452728271484,-5.209178924560547,-13.458740234375,93.8243408203125,101.7929534912109,14.24115180969238,67183.11407937501,-0.1998443603515625,-0.1905975341796875,-0.9432220458984375,67183.109090375,-0.2801754772663116,-0.04246889799833298,-0.05860445648431778,67183.08847237501,53.18716430664062,-54.39907836914062,-133.4203948974609,67183.097866375,0.2939527644306053,-0.2267714679885936,0.288121949112812,-0.3697396218776703,0.1007248014211655,-0.09350366145372391,0.04010419547557831,0.01021093130111694,0.06208539009094238,XArbitraryCorrectedZVertical,0.1575013137928256,-0.0898741694233039,0.1279320771197529,0.9750638330113761,-0.2155650407075882,-0.284152090549469,-0.9342319369316101,-8.655452728271484,-5.209178924560547,-13.458740234375,-1,2,67181.30441016666,unknown,2,2025-05-14T21:35:40.086+09:00,2025-05-14T21:29:57.482+09:00,149,1.61171,0,0,105.3387,0,0,2025-05-14T21:34:34.323+09:00,67180.167191,0,-0.1056919,101.6852,1747226139.460134,0.0.0.0,192.0.0.2,my_iOS_device,0,1,1747226139.453125,1,0.4,0
2025-05-14T21:35:41.928+09:00,74,1747226136.588171,35.65715016444047,139.701000684363,27.74336,-1,-1,-1,-1,30,37.08792774218872,-9999,1747226141.923349,-8.459945678710938,-5.2696533203125,-13.3564453125,93.95072174072266,101.9193344116211,14.2403039932251,67183.14775437501,-0.276580810546875,-0.2518463134765625,-1.026458740234375,67183.142765375,0.1739859133958817,-0.06720460206270218,-0.05185600742697716,67183.118795375,53.320556640625,-54.28648376464844,-133.2161560058594,67183.097866375,0.2939527644306053,-0.2267714679885936,0.288121949112812,-0.3697396218776703,0.1007248014211655,-0.09350366145372391,0.04010419547557831,0.01021093130111694,0.06208539009094238,XArbitraryCorrectedZVertical,0.1575013137928256,-0.0898741694233039,0.1279320771197529,0.9750638330113761,-0.2155650407075882,-0.284152090549469,-0.9342319369316101,-8.655452728271484,-5.209178924560547,-13.458740234375,-1,2,67181.30441016666,unknown,2,2025-05-14T21:35:40.086+09:00,2025-05-14T21:29:57.482+09:00,149,1.61171,0,0,105.3387,0,0,2025-05-14T21:34:34.323+09:00,67180.167191,0,-0.1056919,101.6852,1747226139.460134,0.0.0.0,192.0.0.2,my_iOS_device,0,1,1747226139.453125,1,0.4,0
2025-05-14T21:35:41.963+09:00,75,1747226136.588171,35.65715016444047,139.701000684363,27.74336,-1,-1,-1,-1,30,37.08792774218872,-9999,1747226141.943229,-8.385749816894531,-5.228214263916016,-13.23550415039062,94.01164245605469,101.9802551269531,14.2401123046875,67183.181428375,-0.25225830078125,-0.2728729248046875,-0.9193115234375,67183.17643937501,-0.1825775355100632,0.2472033947706223,-0.05784732103347778,67183.17944037501,53.3197021484375,-54.35868835449219,-133.4220123291016,67183.157731375,0.2906726866096071,-0.229746600877366,0.2868228613262885,0.07865503430366516,0.08335112035274506,-0.07801045477390289,-0.06178499758243561,0.02562776207923889,-0.0880274772644043,XArbitraryCorrectedZVertical,0.1569111179008472,-0.09168607501549768,0.1261848376782503,0.9752180164221118,-0.2184274345636368,-0.2829063236713409,-0.9339451193809509,-8.449375152587891,-5.297176361083984,-13.25086975097656,-1,2,67181.30441016666,unknown,2,2025-05-14T21:35:40.086+09:00,2025-05-14T21:29:57.482+09:00,149,1.61171,0,0,105.3387,0,0,2025-05-14T21:34:34.323+09:00,67180.167191,0,-0.1056919,101.6852,1747226139.460134,0.0.0.0,192.0.0.2,my_iOS_device,0,1,1747226139.453125,1,0.4,0
2025-05-14T21:35:41.997+09:00,76,1747226136.588171,35.65715016444047,139.701000684363,27.74336,-1,-1,-1,-1,30,37.08792774218872,-9999,1747226141.982952,-8.181049346923828,-5.113945007324219,-13.20669555664062,94.10898590087891,102.0775985717773,14.24000549316406,67183.215103375,-0.22186279296875,-0.2913665771484375,-0.88140869140625,67183.210114375,-0.1693940907716751,0.09826718270778656,-0.08386267721652985,67183.20976337501,53.61666870117188,-54.33721923828125,-133.2132263183594,67183.157731375,0.2906726866096071,-0.229746600877366,0.2868228613262885,0.07865503430366516,0.08335112035274506,-0.07801045477390289,-0.06178499758243561,0.02562776207923889,-0.0880274772644043,XArbitraryCorrectedZVertical,0.1569111179008472,-0.09168607501549768,0.1261848376782503,0.9752180164221118,-0.2184274345636368,-0.2829063236713409,-0.9339451193809509,-8.449375152587891,-5.297176361083984,-13.25086975097656,-1,2,67181.30441016666,unknown,2,2025-05-14T21:35:40.086+09:00,2025-05-14T21:29:57.482+09:00,149,1.61171,0,0,105.3387,0,0,2025-05-14T21:34:34.323+09:00,67180.167191,0,-0.1056919,101.6852,1747226139.460134,0.0.0.0,192.0.0.2,my_iOS_device,0,1,1747226139.453125,1,0.4,0
2025-05-14T21:35:42.028+09:00,77,1747226136.588171,35.65715016444047,139.701000684363,27.74336,-1,-1,-1,-1,30,37.08792774218872,-9999,1747226142.022926,-8.309871673583984,-5.222030639648438,-13.52386474609375,94.39957427978516,102.3681869506836,14.23973655700684,67183.24877600001,-0.261199951171875,-0.3177947998046875,-0.95501708984375,67183.24378800001,-0.6917534470558167,0.6849415898323059,-0.1529839634895325,67183.240089,53.4456787109375,-54.37405395507812,-133.5708160400391,67183.217597375,0.2845804574032467,-0.2174967981631836,0.2779300985123989,-0.1104573607444763,0.06648203730583191,-0.1245549917221069,-0.01534926891326904,-0.0113857090473175,0.05916368961334229,XArbitraryCorrectedZVertical,0.1515512287159143,-0.08687429168794089,0.1247318241777165,0.9766920009249969,-0.2075053751468658,-0.2743657827377319,-0.938970148563385,-8.165279388427734,-5.183639526367188,-13.25216674804688,-1,2,67181.30441016666,unknown,2,2025-05-14T21:35:40.086+09:00,2025-05-14T21:29:57.482+09:00,149,1.61171,0,0,105.3387,0,0,2025-05-14T21:34:34.323+09:00,67180.167191,0,-0.1056919,101.6852,1747226139.460134,0.0.0.0,192.0.0.2,my_iOS_device,0,1,1747226139.453125,1,0.4,0
2025-05-14T21:35:42.063+09:00,78,1747226136.588171,35.65715016444047,139.701000684363,27.74336,-1,-1,-1,-1,30,37.08792774218872,-9999,1747226142.042984,-8.086704254150391,-5.088211059570312,-13.7470703125,94.52426910400391,102.4928817749023,14.23966121673584,67183.28245100001,-0.174285888671875,-0.2276763916015625,-0.904937744140625,67183.277462,-0.2522578239440918,0.3750095665454865,-0.1762157827615738,67183.270412,53.88804626464844,-54.00643920898438,-134.0215454101562,67183.277462,0.2687995045794705,-0.1782468511214437,0.2474009571137712,-0.2523089945316315,0.3673152029514313,-0.1728223860263824,-0.04228170216083527,-0.003802984952926636,0.01333373785018921,XArbitraryCorrectedZVertical,0.1336224667322041,-0.07106140846605274,0.1215609429843134,0.9809782426578251,-0.1719059348106384,-0.2448848783969879,-0.9541906118392944,-7.945957183837891,-4.936119079589844,-13.97923278808594,-1,2,67181.30441016666,unknown,2,2025-05-14T21:35:40.086+09:00,2025-05-14T21:29:57.482+09:00,149,1.61171,0,0,105.3387,0,0,2025-05-14T21:34:34.323+09:00,67180.167191,0,-0.1056919,101.6852,1747226139.460134,0.0.0.0,192.0.0.2,my_iOS_device,0,1,1747226139.453125,1,0.4,0
2025-05-14T21:35:42.100+09:00,79,1747226136.588171,35.65715016444047,139.701000684363,27.74336,-1,-1,-1,-1,30,37.08792774218872,-9999,1747226142.082783,-7.809303283691406,-5.039985656738281,-13.90335083007812,95.08079528808594,103.0494079589844,14.23950099945068,67183.31612600001,-0.151123046875,-0.2891387939453125,-0.903350830078125,67183.311137,0.5806793570518494,-0.4995094239711761,-0.4746512174606323,67183.300736,54.00914001464844,-54.13475036621094,-133.8918762207031,67183.277462,0.2687995045794705,-0.1782468511214437,0.2474009571137712,-0.2523089945316315,0.3673152029514313,-0.1728223860263824,-0.04228170216083527,-0.003802984952926636,0.01333373785018921,XArbitraryCorrectedZVertical,0.1336224667322041,-0.07106140846605274,0.1215609429843134,0.9809782426578251,-0.1719059348106384,-0.2448848783969879,-0.9541906118392944,-7.945957183837891,-4.936119079589844,-13.97923278808594,-1,2,67181.30441016666,unknown,2,2025-05-14T21:35:40.086+09:00,2025-05-14T21:29:57.482+09:00,149,1.61171,0,0,105.3387,0,0,2025-05-14T21:34:34.323+09:00,67180.167191,0,-0.1056919,101.6852,1747226139.460134,0.0.0.0,192.0.0.2,my_iOS_device,0,1,1747226139.453125,1,0.4,0
2025-05-14T21:35:42.132+09:00,80,1747226136.588171,35.65715016444047,139.701000684363,27.74336,-1,-1,-1,-1,30,37.08792774218872,-9999,1747226142.122629,-8.018569946289062,-5.073329925537109,-13.87403869628906,96.07669830322266,104.0453109741211,14.2388916015625,67183.34980000001,-0.1534271240234375,-0.24774169921875,-1.009674072265625,67183.344811,-0.3013190925121307,0.2472217679023743,-0.2868653237819672,67183.331061,53.81175231933594,-54.18414306640625,-133.8253173828125,67183.33732800001,0.2481171215838874,-0.1861892845713006,0.2705841343754413,-0.05659981444478035,0.03490076586604118,-0.3604617416858673,0.01779644191265106,-0.02552193403244019,-0.02581769227981567,XArbitraryCorrectedZVertical,0.1446613644456562,-0.07478502229273194,0.1096368212434929,0.9805408243936884,-0.1783799529075623,-0.2672943770885468,-0.9469605684280396,-7.940414428710938,-5.024494171142578,-13.82182312011719,-1,2,67181.30441016666,unknown,2,2025-05-14T21:35:40.086+09:00,2025-05-14T21:29:57.482+09:00,149,1.61171,0,0,105.3387,0,0,2025-05-14T21:34:34.323+09:00,67180.167191,0,-0.1056919,101.6852,1747226139.460134,0.0.0.0,192.0.0.2,my_iOS_device,0,1,1747226139.453125,1,0.4,0
2025-05-14T21:35:42.162+09:00,81,1747226136.588171,35.65715016444047,139.701000684363,27.74336,-1,-1,-1,-1,30,37.08792774218872,-9999,1747226142.142665,-7.680656433105469,-5.257823944091797,-13.78167724609375,96.28987884521484,104.2584915161133,14.23864555358887,67183.383474,-0.1418609619140625,-0.182342529296875,-1.042236328125,67183.37848500001,-0.4289502799510956,0.6190547347068787,0.04599012807011604,67183.36138500001,54.15461730957031,-54.46568298339844,-133.7753753662109,67183.33732800001,0.2481171215838874,-0.1861892845713006,0.2705841343754413,-0.05659981444478035,0.03490076586604118,-0.3604617416858673,0.01779644191265106,-0.02552193403244019,-0.02581769227981567,XArbitraryCorrectedZVertical,0.1446613644456562,-0.07478502229273194,0.1096368212434929,0.9805408243936884,-0.1783799529075623,-0.2672943770885468,-0.9469605684280396,-7.940414428710938,-5.024494171142578,-13.82182312011719,-1,2,67181.30441016666,unknown,2,2025-05-14T21:35:40.086+09:00,2025-05-14T21:29:57.482+09:00,149,1.61171,0,0,105.3387,0,0,2025-05-14T21:34:34.323+09:00,67180.167191,0,-0.1056919,101.6852,1747226139.460134,0.0.0.0,192.0.0.2,my_iOS_device,0,1,1747226139.453125,1,0.4,0
2025-05-14T21:35:42.197+09:00,82,1747226136.588171,35.65715016444047,139.701000684363,27.74336,-1,-1,-1,-1,30,37.08792774218872,-9999,1747226142.182519,-7.520065307617188,-5.269207000732422,-13.98268127441406,96.09645843505859,104.065071105957,14.23855781555176,67183.417149,-0.1385345458984375,-0.3057861328125,-0.874725341796875,67183.41216000001,0.5714550018310547,0.1530313640832901,-0.07505799829959869,67183.39171000001,54.01248168945312,-54.23921203613281,-133.7975921630859,67183.397193,0.2398750644914197,-0.1549067806773719,0.2521388917103221,0.4025892317295074,0.4501537084579468,0.04120799154043198,-0.005970686674118042,0.08780880272388458,-0.06865078210830688,XArbitraryCorrectedZVertical,0.1336428123092073,-0.06121124422295647,0.1086857117882781,0.9831481441369709,-0.1494095772504807,-0.2494757920503616,-0.9567855596542358,-7.737720489501953,-5.128826141357422,-13.91374206542969,-1,2,67181.30441016666,unknown,2,2025-05-14T21:35:40.086+09:00,2025-05-14T21:29:57.482+09:00,149,1.61171,0,0,105.3387,0,0,2025-05-14T21:34:34.323+09:00,67180.167191,0,-0.1056919,101.6852,1747226139.460134,0.0.0.0,192.0.0.2,my_iOS_device,0,1,1747226139.453125,1,0.4,0
2025-05-14T21:35:42.232+09:00,83,1747226136.588171,35.65715016444047,139.701000684363,27.74336,-1,-1,-1,-1,30,37.08792774218872,-9999,1747226142.222515,-7.618061065673828,-5.324291229248047,-13.64949035644531,96.14190673828125,104.1105194091797,14.23859786987305,67183.45082300001,-0.1992034912109375,-0.3027801513671875,-0.9037628173828125,67183.445834,0.4250029623508453,-0.1153039559721947,-0.08334922045469284,67183.45235400001,54.13941955566406,-54.53694152832031,-133.5967407226562,67183.397193,0.2398750644914197,-0.1549067806773719,0.2521388917103221,0.4025892317295074,0.4501537084579468,0.04120799154043198,-0.005970686674118042,0.08780880272388458,-0.06865078210830688,XArbitraryCorrectedZVertical,0.1336428123092073,-0.06121124422295647,0.1086857117882781,0.9831481441369709,-0.1494095772504807,-0.2494757920503616,-0.9567855596542358,-7.737720489501953,-5.128826141357422,-13.91374206542969,-1,2,67181.30441016666,unknown,2,2025-05-14T21:35:40.086+09:00,2025-05-14T21:29:57.482+09:00,149,1.61171,0,0,105.3387,0,0,2025-05-14T21:34:34.323+09:00,67180.167191,0,-0.1056919,101.6852,1747226139.460134,0.0.0.0,192.0.0.2,my_iOS_device,0,1,1747226139.453125,1,0.4,0
2025-05-14T21:35:42.267+09:00,84,1747226136.588171,35.65715016444047,139.701000684363,27.74336,-1,-1,-1,-1,30,37.08792774218872,-9999,1747226142.262462,-7.415565490722656,-5.547096252441406,-13.80381774902344,96.96418762207031,104.9328002929688,14.23840999603271,67183.48449800001,-0.1339111328125,-0.4387969970703125,-0.868896484375,67183.479509,-0.9147859811782837,0.9782584309577942,-0.778326690196991,67183.482678,54.41654968261719,-54.65946960449219,-133.8394012451172,67183.45705900001,0.2402061050946744,-0.1532556699677327,0.2803545652981623,0.290986567735672,0.1661666631698608,-0.1828585416078568,-0.04591535031795502,-0.01918688416481018,0.05676531791687012,XArbitraryCorrectedZVertical,0.1473872798969082,-0.05856471989668854,0.1076723188408478,0.9814550708962545,-0.1466963440179825,-0.2766963839530945,-0.9496943354606628,-7.630340576171875,-5.389362335205078,-13.64924621582031,-1,2,67181.30441016666,unknown,2,2025-05-14T21:35:40.086+09:00,2025-05-14T21:29:57.482+09:00,149,1.61171,0,0,105.3387,0,0,2025-05-14T21:34:34.323+09:00,67180.167191,0,-0.1056919,101.6852,1747226139.460134,0.0.0.0,192.0.0.2,my_iOS_device,0,1,1747226139.453125,1,0.4,0
2025-05-14T21:35:42.299+09:00,85,1747226136.588171,35.65715016444047,139.701000684363,27.74336,-1,-1,-1,-1,30,37.08792774218872,-9999,1747226142.282568,-7.064937591552734,-5.477867126464844,-13.89572906494141,97.47914123535156,105.44775390625,14.23840045928955,67183.51817200001,-0.0087432861328125,-0.1887359619140625,-0.9700775146484375,67183.513183,-0.5339347720146179,0.6747467517852783,0.04344574362039566,67183.513001,54.81863403320312,-54.47801208496094,-133.9927520751953,67183.45705900001,0.2402061050946744,-0.1532556699677327,0.2803545652981623,0.290986567735672,0.1661666631698608,-0.1828585416078568,-0.04591535031795502,-0.01918688416481018,0.05676531791687012,XArbitraryCorrectedZVertical,0.1473872798969082,-0.05856471989668854,0.1076723188408478,0.9814550708962545,-0.1466963440179825,-0.2766963839530945,-0.9496943354606628,-7.630340576171875,-5.389362335205078,-13.64924621582031,-1,2,67181.30441016666,unknown,2,2025-05-14T21:35:40.086+09:00,2025-05-14T21:29:57.482+09:00,149,1.61171,0,0,105.3387,0,0,2025-05-14T21:34:34.323+09:00,67180.167191,0,-0.1056919,101.6852,1747226139.460134,0.0.0.0,192.0.0.2,my_iOS_device,0,1,1747226139.453125,1,0.4,0
2025-05-14T21:35:42.332+09:00,86,1747226136.588171,35.65715016444047,139.701000684363,27.74336,-1,-1,-1,-1,30,37.08792774218872,-9999,1747226142.322547,-6.669845581054688,-5.186077117919922,-14.20258331298828,97.24404144287109,105.2126541137695,14.23806667327881,67183.551846,0.041412353515625,-0.2462310791015625,-0.791412353515625,67183.54685700001,0.2977326214313507,0.1588021665811539,0.02409495040774345,67183.543317,55.07144165039062,-54.52287292480469,-134.1511993408203,67183.516925,0.2080346538209468,-0.09200920331997205,0.2428261819611483,-0.3688795268535614,0.5704353451728821,0.09241897612810135,0.06252679973840714,0.1019274443387985,-0.006435394287109375,XArbitraryCorrectedZVertical,0.1250727474815484,-0.03284104687143153,0.09741667734278109,0.98680722874574,-0.08918390423059464,-0.2404468506574631,-0.9665565490722656,-6.938243865966797,-5.370037078857422,-14.01030731201172,-1,2,67181.30441016666,unknown,2,2025-05-14T21:35:40.086+09:00,2025-05-14T21:29:57.482+09:00,149,1.61171,0,0,105.3387,0,0,2025-05-14T21:34:34.323+09:00,67180.167191,0,-0.1056919,101.6852,1747226139.460134,0.0.0.0,192.0.0.2,my_iOS_device,0,1,1747226139.453125,1,0.4,0
2025-05-14T21:35:42.367+09:00,87,1747226136.588171,35.65715016444047,139.701000684363,27.74336,-1,-1,-1,-1,30,37.08792774218872,-9999,1747226142.362273,-6.647064208984375,-5.236122131347656,-14.37203216552734,97.220703125,105.1893157958984,14.23783588409424,67183.585521,-0.034210205078125,-0.276153564453125,-0.8212432861328125,67183.58053200001,-0.09690391272306442,-0.1372132450342178,-0.004836566746234894,67183.57363900001,55.11611938476562,-54.32901000976562,-134.3016662597656,67183.57679000001,0.2112965158714357,-0.08065219012772012,0.2501523206781159,-0.02628984861075878,-0.1431775689125061,0.008805626071989536,0.0960930660367012,0.005302891135215759,0.1777766942977905,XArbitraryCorrectedZVertical,0.1281719771063158,-0.02663275328551643,0.09954170813249782,0.9863844149016541,-0.0780571773648262,-0.2475515455007553,-0.965725302696228,-6.647064208984375,-5.236122131347656,-14.37203216552734,-1,2,67181.30441016666,unknown,2,2025-05-14T21:35:40.086+09:00,2025-05-14T21:29:57.482+09:00,149,1.61171,0,0,105.3387,0,0,2025-05-14T21:34:34.323+09:00,67180.167191,0,-0.1056919,101.6852,1747226139.460134,0.0.0.0,192.0.0.2,my_iOS_device,0,1,1747226139.453125,1,0.4,0
2025-05-14T21:35:42.402+09:00,88,1747226136.588171,35.65715016444047,139.701000684363,27.74336,-1,-1,-1,-1,30,37.08792774218872,-9999,1747226142.382222,-6.745578765869141,-5.169795989990234,-14.34783172607422,97.27448272705078,105.2430953979492,14.23792171478271,67183.619196,-0.119873046875,-0.1017303466796875,-1.012847900390625,67183.61420700001,-0.4951737821102142,0.1414253115653992,-0.04648973792791367,67183.60396200001,54.9351806640625,-54.16152954101562,-134.1908264160156,67183.57679000001,0.2112965158714357,-0.08065219012772012,0.2501523206781159,-0.02628984861075878,-0.1431775689125061,0.008805626071989536,0.0960930660367012,0.005302891135215759,0.1777766942977905,XArbitraryCorrectedZVertical,0.1281719771063158,-0.02663275328551643,0.09954170813249782,0.9863844149016541,-0.0780571773648262,-0.2475515455007553,-0.965725302696228,-6.647064208984375,-5.236122131347656,-14.37203216552734,-1,2,67181.30441016666,unknown,2,2025-05-14T21:35:40.086+09:00,2025-05-14T21:29:57.482+09:00,149,1.61171,0,0,105.3387,0,0,2025-05-14T21:34:34.323+09:00,67180.167191,0,-0.1056919,101.6852,1747226139.460134,0.0.0.0,192.0.0.2,my_iOS_device,0,1,1747226139.453125,1,0.4,0
2025-05-14T21:35:42.432+09:00,89,1747226136.588171,35.65715016444047,139.701000684363,27.74336,-1,-1,-1,-1,30,37.08792774218872,-9999,1747226142.422106,-6.608360290527344,-4.901748657226562,-14.55939483642578,97.30123901367188,105.2698516845703,14.23810958862305,67183.652869,-0.0562286376953125,-0.0335693359375,-0.90673828125,67183.647881,-0.3635979294776917,0.4238545894622803,0.3588886559009552,67183.634286,55.24658203125,-54.00617980957031,-134.5419921875,67183.636656,0.2071410299385367,-0.07352625010683812,0.2284399521471759,-0.3549945950508118,0.5573170185089111,0.07805633544921875,-0.0936705693602562,0.1936212629079819,-0.1002354621887207,XArbitraryCorrectedZVertical,0.1170595945524902,-0.02454461479796776,0.09847581052310564,0.9879257788267507,-0.07155159115791321,-0.2264582812786102,-0.9713892340660095,-6.608360290527344,-4.901748657226562,-14.55939483642578,-1,2,67181.30441016666,unknown,2,2025-05-14T21:35:40.086+09:00,2025-05-14T21:29:57.482+09:00,149,1.61171,0,0,105.3387,0,0,2025-05-14T21:34:34.323+09:00,67180.167191,0,-0.1056919,101.6852,1747226139.460134,0.0.0.0,192.0.0.2,my_iOS_device,0,1,1747226139.453125,1,0.4,0
2025-05-14T21:35:42.467+09:00,90,1747226136.588171,35.65715016444047,139.701000684363,27.74336,-1,-1,-1,-1,30,37.08792774218872,-9999,1747226142.461866,-6.693073272705078,-4.553451538085938,-14.55141448974609,96.30471801757812,104.2733306884766,14.23830032348633,67183.68654400001,-0.0487518310546875,-0.465728759765625,-0.9300079345703125,67183.681555,-0.1485487222671509,-0.2559518814086914,0.3284351229667664,67183.664609,55.1505126953125,-53.64826965332031,-134.2778015136719,67183.636656,0.2071410299385367,-0.07352625010683812,0.2284399521471759,-0.3549945950508118,0.5573170185089111,0.07805633544921875,-0.0936705693602562,0.1936212629079819,-0.1002354621887207,XArbitraryCorrectedZVertical,0.1170595945524902,-0.02454461479796776,0.09847581052310564,0.9879257788267507,-0.07155159115791321,-0.2264582812786102,-0.9713892340660095,-6.608360290527344,-4.901748657226562,-14.55939483642578,-1,2,67181.30441016666,unknown,2,2025-05-14T21:35:40.086+09:00,2025-05-14T21:29:57.482+09:00,149,1.61171,0,0,105.3387,0,0,2025-05-14T21:34:34.323+09:00,67180.167191,0,-0.1056919,101.6852,1747226139.460134,0.0.0.0,192.0.0.2,my_iOS_device,0,1,1747226139.453125,1,0.4,0
2025-05-14T21:35:42.501+09:00,91,1747226136.588171,35.65715016444047,139.701000684363,27.74336,-1,-1,-1,-1,30,37.08792774218872,-9999,1747226142.481977,-6.857921600341797,-4.402458190917969,-14.61785125732422,96.25729370117188,104.2259063720703,14.23841667175293,67183.72021900001,-0.08355712890625,-0.2270050048828125,-0.830169677734375,67183.71523,-0.06483492255210876,-0.4764104783535004,-0.1607808917760849,67183.69493,54.85748291015625,-53.43063354492188,-134.5507354736328,67183.696522,0.2266242684077914,-0.0761456333723184,0.2107674061251762,-0.05435220897197723,-0.2119818031787872,-0.07129327952861786,0.01877035200595856,-0.2275115251541138,0.0445561408996582,XArbitraryCorrectedZVertical,0.10871839681785,-0.02572465385349944,0.1083828437879795,0.987811694578186,-0.07438864558935165,-0.2092103809118271,-0.9750370979309082,-6.853290557861328,-4.360294342041016,-14.61551666259766,-1,2,67181.30441016666,unknown,2,2025-05-14T21:35:40.086+09:00,2025-05-14T21:29:57.482+09:00,149,1.61171,0,0,105.3387,0,0,2025-05-14T21:34:34.323+09:00,67180.167191,0,-0.1056919,101.6852,1747226139.460134,0.0.0.0,192.0.0.2,my_iOS_device,0,1,1747226139.453125,1,0.4,0
2025-05-14T21:35:42.540+09:00,92,1747226136.588171,35.65715016444047,139.701000684363,27.74336,-1,-1,-1,-1,30,37.08792774218872,-9999,1747226142.521726,-7.134639739990234,-4.392292022705078,-14.48360443115234,96.62228393554688,104.5908966064453,14.23867225646973,67183.75389400001,-0.114959716796875,-0.172943115234375,-0.974700927734375,67183.748905,-0.3956179022789001,-0.3077479600906372,0.009642773307859898,67183.755577,54.34426879882812,-53.23703002929688,-134.3616485595703,67183.696522,0.2266242684077914,-0.0761456333723184,0.2107674061251762,-0.05435220897197723,-0.2119818031787872,-0.07129327952861786,0.01877035200595856,-0.2275115251541138,0.0445561408996582,XArbitraryCorrectedZVertical,0.10871839681785,-0.02572465385349944,0.1083828437879795,0.987811694578186,-0.07438864558935165,-0.2092103809118271,-0.9750370979309082,-6.853290557861328,-4.360294342041016,-14.61551666259766,-1,2,67181.30441016666,unknown,2,2025-05-14T21:35:40.086+09:00,2025-05-14T21:29:57.482+09:00,149,1.61171,0,0,105.3387,0,0,2025-05-14T21:34:34.323+09:00,67180.167191,0,-0.1056919,101.6852,1747226139.460134,0.0.0.0,192.0.0.2,my_iOS_device,0,1,1747226139.453125,1,0.4,0
2025-05-14T21:35:42.566+09:00,93,1747226136.588171,35.65715016444047,139.701000684363,27.74336,-1,-1,-1,-1,30,37.08792774218872,-9999,1747226142.561856,-7.539287567138672,-4.083438873291016,-14.33147430419922,96.55620574951172,104.5248184204102,14.23894119262695,67183.78756700001,-0.0929718017578125,-0.152496337890625,-1.037124633789062,67183.78257900001,0.006502640433609486,-0.3906050324440002,0.1859592199325562,67183.7859,53.95649719238281,-53.16940307617188,-134.2674102783203,67183.75638800001,0.2205698130761212,-0.09620869000982836,0.1990413856049304,-0.3678997755050659,-0.3385854661464691,0.08341823518276215,-0.05071842670440674,0.03435377776622772,0.01138323545455933,XArbitraryCorrectedZVertical,0.1039048406565999,-0.03663450121786098,0.1046415792539134,0.9883885897608027,-0.09416378289461136,-0.1977297365665436,-0.9757233858108521,-7.387283325195312,-4.202022552490234,-14.39368438720703,-1,2,67181.30441016666,unknown,2,2025-05-14T21:35:40.086+09:00,2025-05-14T21:29:57.482+09:00,149,1.61171,0,0,105.3387,0,0,2025-05-14T21:34:34.323+09:00,67180.167191,0,-0.1056919,101.6852,1747226139.460134,0.0.0.0,192.0.0.2,my_iOS_device,0,1,1747226139.453125,1,0.4,0
2025-05-14T21:35:42.601+09:00,94,1747226136.588171,35.65715016444047,139.701000684363,27.74336,-1,-1,-1,-1,30,37.08792774218872,-9999,1747226142.581741,-7.778175354003906,-4.131988525390625,-14.29038238525391,96.32228088378906,104.2908935546875,14.23907470703125,67183.82124200001,0.10321044921875,-0.06524658203125,-0.9475555419921875,67183.816253,-0.1302908957004547,-0.7557366490364075,0.4378348588943481,67183.816225,53.87471008300781,-53.12141418457031,-134.3773040771484,67183.816253,0.232947294583708,-0.1223616756573549,0.1913818852575228,-0.1303185522556305,-0.7634352445602417,0.4412159621715546,0.09481892734766006,0.05686905980110168,0.01969009637832642,XArbitraryCorrectedZVertical,0.1017929674160816,-0.04936803010408151,0.1096600897779289,0.9875099514577633,-0.1198280975222588,-0.1902157366275787,-0.9744019508361816,-7.88970947265625,-4.080482482910156,-14.42876434326172,-1,2,67181.30441016666,unknown,2,2025-05-14T21:35:40.086+09:00,2025-05-14T21:29:57.482+09:00,149,1.61171,0,0,105.3387,0,0,2025-05-14T21:34:34.323+09:00,67180.167191,0,-0.1056919,101.6852,1747226139.460134,0.0.0.0,192.0.0.2,my_iOS_device,0,1,1747226139.453125,1,0.4,0
2025-05-14T21:35:42.636+09:00,95,1747226136.588171,35.65715016444047,139.701000684363,27.74336,-1,-1,-1,-1,30,37.08792774218872,-9999,1747226142.621708,-8.3017578125,-3.990253448486328,-14.27259063720703,95.46684265136719,103.4354553222656,14.23934268951416,67183.854917,-0.1026153564453125,-0.173492431640625,-1.241729736328125,67183.84992800001,0.2260411232709885,-0.4435460269451141,0.4510305523872375,67183.84654700001,53.19773864746094,-52.93609619140625,-133.9544067382812,67183.816253,0.232947294583708,-0.1223616756573549,0.1913818852575228,-0.1303185522556305,-0.7634352445602417,0.4412159621715546,0.09481892734766006,0.05686905980110168,0.01969009637832642,XArbitraryCorrectedZVertical,0.1017929674160816,-0.04936803010408151,0.1096600897779289,0.9875099514577633,-0.1198280975222588,-0.1902157366275787,-0.9744019508361816,-7.88970947265625,-4.080482482910156,-14.42876434326172,-1,2,67181.30441016666,unknown,2,2025-05-14T21:35:40.086+09:00,2025-05-14T21:29:57.482+09:00,149,1.61171,0,0,105.3387,0,0,2025-05-14T21:34:34.323+09:00,67180.167191,0,-0.1056919,101.6852,1747226139.460134,0.0.0.0,192.0.0.2,my_iOS_device,0,1,1747226139.453125,1,0.4,0
2025-05-14T21:35:42.671+09:00,96,1747226136.588171,35.65715016444047,139.701000684363,27.74336,-1,-1,-1,-1,30,37.08792774218872,-9999,1747226142.661581,-8.593585968017578,-4.206268310546875,-13.49946594238281,94.23541259765625,102.2040252685547,14.23957347869873,67183.888592,-0.24993896484375,-0.1869354248046875,-1.01593017578125,67183.88360300001,-0.1696657240390778,0.5319477915763855,0.6448240280151367,67183.87687000001,53.19998168945312,-53.3160400390625,-133.3731536865234,67183.87611900001,0.2648761203482848,-0.156079890657165,0.1923218384741616,-5.665050048264675e-05,0.4241714477539062,0.6259409785270691,-0.004019975662231445,0.04900270700454712,-0.2184635996818542,XArbitraryCorrectedZVertical,0.1051295774814047,-0.06428100603396492,0.1236214409842671,0.9846489695271278,-0.1525809913873672,-0.1911384463310242,-0.9696314334869385,-8.627811431884766,-4.130077362060547,-13.66474914550781,-1,2,67181.30441016666,unknown,2,2025-05-14T21:35:40.086+09:00,2025-05-14T21:29:57.482+09:00,149,1.61171,0,0,105.3387,0,0,2025-05-14T21:34:34.323+09:00,67180.167191,0,-0.1056919,101.6852,1747226139.460134,0.0.0.0,192.0.0.2,my_iOS_device,0,1,1747226139.453125,1,0.4,0
2025-05-14T21:35:42.701+09:00,97,1747226136.588171,35.65715016444047,139.701000684363,27.74336,-1,-1,-1,-1,30,37.08792774218872,-9999,1747226142.681705,-8.468791961669922,-4.210132598876953,-13.73251342773438,93.47924041748047,101.4478530883789,14.23964405059814,67183.92226600001,-0.235443115234375,-0.2453460693359375,-0.8789520263671875,67183.917277,-0.3324634432792664,0.1122082993388176,0.5511414408683777,67183.907192,53.62091064453125,-52.96794128417969,-133.9756622314453,67183.87611900001,0.2648761203482848,-0.156079890657165,0.1923218384741616,-5.665050048264675e-05,0.4241714477539062,0.6259409785270691,-0.004019975662231445,0.04900270700454712,-0.2184635996818542,XArbitraryCorrectedZVertical,0.1051295774814047,-0.06428100603396492,0.1236214409842671,0.9846489695271278,-0.1525809913873672,-0.1911384463310242,-0.9696314334869385,-8.627811431884766,-4.130077362060547,-13.66474914550781,-1,2,67181.30441016666,unknown,2,2025-05-14T21:35:40.086+09:00,2025-05-14T21:29:57.482+09:00,149,1.61171,0,0,105.3387,0,0,2025-05-14T21:34:34.323+09:00,67180.167191,0,-0.1056919,101.6852,1747226139.460134,0.0.0.0,192.0.0.2,my_iOS_device,0,1,1747226139.453125,1,0.4,0
2025-05-14T21:35:42.736+09:00,98,1747226136.588171,35.65715016444047,139.701000684363,27.74336,-1,-1,-1,-1,30,37.08792774218872,-9999,1747226142.721335,-8.464138031005859,-3.628681182861328,-14.22136688232422,92.24079132080078,100.2094039916992,14.23980331420898,67183.95594,-0.045928955078125,-0.1942291259765625,-0.9902801513671875,67183.95095100001,-0.3936258554458618,-0.3290921449661255,0.4781029224395752,67183.937517,53.29719543457031,-52.631591796875,-134.1410064697266,67183.935985,0.2983994356212728,-0.1490256150794341,0.1713067873834283,-0.1155574172735214,-0.250803530216217,0.5382204651832581,-0.05632010102272034,-0.06155508756637573,0.09979230165481567,XArbitraryCorrectedZVertical,0.09538880022047373,-0.060665692174866,0.141393054579398,0.9834779795911941,-0.1463013738393784,-0.1704701483249664,-0.9744412899017334,-8.414176940917969,-3.790985107421875,-14.27304840087891,-1,2,67181.30441016666,unknown,2,2025-05-14T21:35:40.086+09:00,2025-05-14T21:29:57.482+09:00,149,1.61171,0,0,105.3387,0,0,2025-05-14T21:34:34.323+09:00,67180.167191,0,-0.1056919,101.6852,1747226139.460134,0.0.0.0,192.0.0.2,my_iOS_device,0,1,1747226139.453125,1,0.4,0
2025-05-14T21:35:42.771+09:00,99,1747226136.588171,35.65715016444047,139.701000684363,27.74336,-1,-1,-1,-1,30,37.08792774218872,-9999,1747226142.761313,-8.543781280517578,-3.048511505126953,-14.12725067138672,91.03044128417969,98.99905395507812,14.24000644683838,67183.989615,-0.2010498046875,-0.176239013671875,-1.152984619140625,67183.984626,-0.5796077251434326,0.01246678922325373,0.7559247016906738,67183.96784,53.21548461914062,-52.34225463867188,-134.037353515625,67183.935985,0.2983994356212728,-0.1490256150794341,0.1713067873834283,-0.1155574172735214,-0.250803530216217,0.5382204651832581,-0.05632010102272034,-0.06155508756637573,0.09979230165481567,XArbitraryCorrectedZVertical,0.09538880022047373,-0.060665692174866,0.141393054579398,0.9834779795911941,-0.1463013738393784,-0.1704701483249664,-0.9744412899017334,-8.414176940917969,-3.790985107421875,-14.27304840087891,-1,2,67181.30441016666,unknown,2,2025-05-14T21:35:40.086+09:00,2025-05-14T21:29:57.482+09:00,149,1.61171,0,0,105.3387,0,0,2025-05-14T21:34:34.323+09:00,67180.167191,0,-0.1056919,101.6852,1747226139.460134,0.0.0.0,192.0.0.2,my_iOS_device,0,1,1747226139.453125,1,0.4,0
2025-05-14T21:35:42.806+09:00,100,1747226136.588171,35.65715016444047,139.701000684363,27.74336,-1,-1,-1,-1,30,37.08792774218872,-9999,1747226142.801316,-8.708805084228516,-2.870979309082031,-14.23311614990234,89.56045532226562,97.52906799316406,14.23992729187012,67184.02329,-0.210113525390625,-0.2088623046875,-1.02984619140625,67184.018301,0.6157979369163513,0.05763187259435654,0.376316636800766,67183.99816300001,53.04844665527344,-51.96412658691406,-134.1419525146484,67183.995851,0.3314166934296264,-0.1651365232955765,0.1357177320188193,-0.09970036894083023,-0.005517442245036364,0.7848869562149048,-0.04189759492874146,-0.0391828715801239,-0.1729125380516052,XArbitraryCorrectedZVertical,0.08022305251680695,-0.07001080356595173,0.1584949743451483,0.981601883635322,-0.1628753691911697,-0.1353014707565308,-0.9773254990577698,-8.703655242919922,-2.894466400146484,-14.31578826904297,-1,2,67181.30441016666,unknown,2,2025-05-14T21:35:40.086+09:00,2025-05-14T21:29:57.482+09:00,149,1.61171,0,0,105.3387,0,0,2025-05-14T21:34:34.323+09:00,67181.242199,0,-0.1215458,101.6853,1747226139.460134,0.0.0.0,192.0.0.2,my_iOS_device,0,1,1747226139.453125,1,0.4,0
