loggingTime(txt),loggingSample(N),locationTimestamp_since1970(s),locationLatitude(WGS84),locationLongitude(WGS84),locationAltitude(m),locationSpeed(m/s),locationSpeedAccuracy(m/s),locationCourse(°),locationCourseAccuracy(°),locationVerticalAccuracy(m),locationHorizontalAccuracy(m),locationFloor(Z),locationHeadingTimestamp_since1970(s),locationHeadingX(µT),locationHeadingY(µT),locationHeadingZ(µT),locationTrueHeading(°),locationMagneticHeading(°),locationHeadingAccuracy(°),accelerometerTimestamp_sinceReboot(s),accelerometerAccelerationX(G),accelerometerAccelerationY(G),accelerometerAccelerationZ(G),gyroTimestamp_sinceReboot(s),gyroRotationX(rad/s),gyroRotationY(rad/s),gyroRotationZ(rad/s),magnetometerTimestamp_sinceReboot(s),magnetometerX(µT),magnetometerY(µT),magnetometerZ(µT),motionTimestamp_sinceReboot(s),motionYaw(rad),motionRoll(rad),motionPitch(rad),motionRotationRateX(rad/s),motionRotationRateY(rad/s),motionRotationRateZ(rad/s),motionUserAccelerationX(G),motionUserAccelerationY(G),motionUserAccelerationZ(G),motionAttitudeReferenceFrame(txt),motionQuaternionX(R),motionQuaternionY(R),motionQuaternionZ(R),motionQuaternionW(R),motionGravityX(G),motionGravityY(G),motionGravityZ(G),motionMagneticFieldX(µT),motionMagneticFieldY(µT),motionMagneticFieldZ(µT),motionHeading(°),motionMagneticFieldCalibrationAccuracy(Z),activityTimestamp_sinceReboot(s),activity(txt),activityActivityConfidence(Z),activityActivityStartDate(txt),pedometerStartDate(txt),pedometerNumberofSteps(N),pedometerAverageActivePace(s/m),pedometerCurrentPace(s/m),pedometerCurrentCadence(steps/s),pedometerDistance(m),pedometerFloorAscended(N),pedometerFloorDescended(N),pedometerEndDate(txt),altimeterTimestamp_sinceReboot(s),altimeterReset(bool),altimeterRelativeAltitude(m),altimeterPressure(kPa),IP_Timestamp_since1970(s),IP_en0(txt),IP_pdp_ip0(txt),deviceID(txt),deviceOrientationTimeStamp_since1970(s),deviceOrientation(Z),batteryTimeStamp_since1970(s),batteryState(R),batteryLevel(Z),label(N)
2025-05-14T21:30:38.948+09:00,1,1747225837.974268,35.65701479262417,139.7010428478721,27.62572,-1,-1,-1,-1,30,24.22405316691533,-9999,1747225838.943506,-0.5039405822753906,-11.04530715942383,-10.43555450439453,105.5270233154297,113.4956359863281,13.58707904815674,66880.1474035,0.306488037109375,-0.373748779296875,-0.86029052734375,66880.11872150001,0.5603370666503906,0.2056487649679184,0.0022498385515064,66880.1481335,52.96188354492188,-60.47984313964844,-128.2999114990234,66880.0875445,-0.004317489090888979,0.3781967192354487,0.3363275945356707,0.2475303411483765,-0.0988156646490097,0.06966253370046616,0.007475852966308594,0.003514975309371948,-0.1124817132949829,XArbitraryCorrectedZVertical,0.1647884414186887,0.1849664895983505,0.02937111531516891,0.9683850602766021,0.3485575318336487,-0.3300226628780365,-0.8772643208503723,-0.4979019165039062,-10.65081024169922,-10.94747161865234,-1,2,66863.36956454167,walking,2,2025-05-14T21:30:22.152+09:00,null,0,0,0,0,0,0,0,null,66878.279775,0,-0.2430935,101.6868,1747225838.947632,0.0.0.0,192.0.0.2,my_iOS_device,0,1,1747225838.918107,1,0.45,0
2025-05-14T21:30:38.963+09:00,2,1747225837.974268,35.65701479262417,139.7010428478721,27.62572,-1,-1,-1,-1,30,24.22405316691533,-9999,1747225838.943506,-0.5039405822753906,-11.04530715942383,-10.43555450439453,105.5270233154297,113.4956359863281,13.58707904815674,66880.1810735,0.4328460693359375,-0.359527587890625,-0.772247314453125,66880.1523915,0.2434997409582138,0.3926261067390442,-0.1420735120773315,66880.17845250001,53.32644653320312,-60.52156066894531,-127.7179870605469,66880.1474035,-0.01501325604614774,0.3923345486068653,0.3595592577764916,0.2846508622169495,0.3878349661827087,-0.1294465959072113,-0.04289382696151733,-0.02092590928077698,0.01332157850265503,XArbitraryCorrectedZVertical,0.1768178637738955,0.1904482551623785,0.02760776154834989,0.9652475222496862,0.3578963279724121,-0.3518617153167725,-0.8649297952651978,-0.7012863159179688,-10.88588333129883,-10.65167999267578,-1,2,66863.36956454167,walking,2,2025-05-14T21:30:22.152+09:00,null,0,0,0,0,0,0,0,null,66878.279775,0,-0.2430935,101.6868,1747225838.947632,0.0.0.0,192.0.0.2,my_iOS_device,0,1,1747225838.918107,1,0.45,0
2025-05-14T21:30:38.998+09:00,3,1747225837.974268,35.65701479262417,139.7010428478721,27.62572,-1,-1,-1,-1,30,24.22405316691533,-9999,1747225838.983264,-0.3181419372558594,-11.04513549804688,-10.15702819824219,105.7328948974609,113.7015075683594,13.58727169036865,66880.21474350001,0.40142822265625,-0.354736328125,-0.7974090576171875,66880.1860615,0.1085318028926849,0.02825001440942287,-0.07044380903244019,66880.2087705,53.25706481933594,-60.73318481445312,-127.6822662353516,66880.20726150001,-0.02452187888540497,0.403686625358217,0.3652370809089808,0.1621741056442261,-0.2207419127225876,-0.0876409038901329,0.02853047847747803,-0.02037760615348816,0.07423126697540283,XArbitraryCorrectedZVertical,0.1803220702727619,0.1949457363111769,0.02459267058417282,0.9637818440030675,0.3669011294841766,-0.3571707606315613,-0.8589602112770081,-0.3645973205566406,-11.13845825195312,-10.10140228271484,-1,2,66863.36956454167,walking,2,2025-05-14T21:30:22.152+09:00,null,0,0,0,0,0,0,0,null,66878.279775,0,-0.2430935,101.6868,1747225838.947632,0.0.0.0,192.0.0.2,my_iOS_device,0,1,1747225838.918107,1,0.45,0
2025-05-14T21:30:39.033+09:00,4,1747225837.974268,35.65701479262417,139.7010428478721,27.62572,-1,-1,-1,-1,30,24.22405316691533,-9999,1747225839.023089,-0.2636604309082031,-11.21147537231445,-9.961967468261719,106.1579055786133,114.1265182495117,13.58745384216309,66880.24841450001,0.4668731689453125,-0.29656982421875,-0.8874053955078125,66880.2197325,0.3942173421382904,-0.3464719355106354,-0.08606643974781036,66880.23909450001,53.39773559570312,-60.75537109375,-127.5202026367188,66880.20726150001,-0.02452187888540497,0.403686625358217,0.3652370809089808,0.1621741056442261,-0.2207419127225876,-0.0876409038901329,0.02853047847747803,-0.02037760615348816,0.07423126697540283,XArbitraryCorrectedZVertical,0.1803220702727619,0.1949457363111769,0.02459267058417282,0.9637818440030675,0.3669011294841766,-0.3571707606315613,-0.8589602112770081,-0.3645973205566406,-11.13845825195312,-10.10140228271484,-1,2,66863.36956454167,walking,2,2025-05-14T21:30:22.152+09:00,null,0,0,0,0,0,0,0,null,66878.279775,0,-0.2430935,101.6868,1747225838.947632,0.0.0.0,192.0.0.2,my_iOS_device,0,1,1747225838.918107,1,0.45,0
2025-05-14T21:30:39.068+09:00,5,1747225837.974268,35.65701479262417,139.7010428478721,27.62572,-1,-1,-1,-1,30,24.22405316691533,-9999,1747225839.063032,-0.8452682495117188,-11.57983016967773,-9.685226440429688,106.1261138916016,114.0947265625,13.58763980865479,66880.28208450001,0.424774169921875,-0.3107147216796875,-0.886810302734375,66880.25340250001,0.868884265422821,-0.6453015208244324,0.2580022513866425,66880.2694185,52.90203857421875,-61.10896301269531,-127.4912719726562,66880.26712050001,-0.03382201014645914,0.3772405079943115,0.4025244154626662,0.9903022050857544,-0.6025892496109009,0.4154393970966339,0.1172002255916595,0.1223939657211304,-0.04668939113616943,XArbitraryCorrectedZVertical,0.1994392845320603,0.1803722553387173,0.02120280512635856,0.962933268082064,0.3389155566692352,-0.3917422294616699,-0.8553796410560608,-0.7075347900390625,-11.50221633911133,-9.863052368164062,-1,2,66863.36956454167,walking,2,2025-05-14T21:30:22.152+09:00,null,0,0,0,0,0,0,0,null,66878.279775,0,-0.2430935,101.6868,1747225838.947632,0.0.0.0,192.0.0.2,my_iOS_device,0,1,1747225838.918107,1,0.45,0
2025-05-14T21:30:39.098+09:00,6,1747225837.974268,35.65701479262417,139.7010428478721,27.62572,-1,-1,-1,-1,30,24.22405316691533,-9999,1747225839.082873,-0.9541778564453125,-11.69549560546875,-9.383071899414062,105.7201614379883,113.6887741088867,13.58773326873779,66880.3157545,0.2796173095703125,-0.4768829345703125,-0.8314361572265625,66880.28707250001,0.8495731353759766,-0.332712709903717,0.5702807903289795,66880.29974250001,52.66117858886719,-61.23187255859375,-126.9690551757812,66880.26712050001,-0.03382201014645914,0.3772405079943115,0.4025244154626662,0.9903022050857544,-0.6025892496109009,0.4154393970966339,0.1172002255916595,0.1223939657211304,-0.04668939113616943,XArbitraryCorrectedZVertical,0.1994392845320603,0.1803722553387173,0.02120280512635856,0.962933268082064,0.3389155566692352,-0.3917422294616699,-0.8553796410560608,-0.7075347900390625,-11.50221633911133,-9.863052368164062,-1,2,66863.36956454167,walking,2,2025-05-14T21:30:22.152+09:00,null,0,0,0,0,0,0,0,null,66878.279775,0,-0.2430935,101.6868,1747225838.947632,0.0.0.0,192.0.0.2,my_iOS_device,0,1,1747225838.918107,1,0.45,0
2025-05-14T21:30:39.133+09:00,7,1747225837.974268,35.65701479262417,139.7010428478721,27.62572,-1,-1,-1,-1,30,24.22405316691533,-9999,1747225839.122811,-1.096885681152344,-11.8078727722168,-9.295951843261719,104.4319915771484,112.4006042480469,13.58792018890381,66880.3494255,0.2570648193359375,-0.514068603515625,-0.845306396484375,66880.32074350001,-0.02696477249264717,0.2136467695236206,0.529212474822998,66880.33006950001,52.52787780761719,-61.34494018554688,-126.9144287109375,66880.3269785,-0.01158227544988602,0.3578569227689913,0.4438006507870721,-0.1063014566898346,0.2812351882457733,0.4737080931663513,-0.05605152249336243,-0.08567026257514954,-0.00738900899887085,XArbitraryCorrectedZVertical,0.2175718674878696,0.1723543672647648,0.03360987279122678,0.9601181753920496,0.3163360059261322,-0.429375022649765,-0.8459129333496094,-1.096885681152344,-11.8078727722168,-9.295951843261719,-1,2,66863.36956454167,walking,2,2025-05-14T21:30:22.152+09:00,null,0,0,0,0,0,0,0,null,66878.279775,0,-0.2430935,101.6868,1747225838.947632,0.0.0.0,192.0.0.2,my_iOS_device,0,1,1747225838.918107,1,0.45,0
2025-05-14T21:30:39.168+09:00,8,1747225837.974268,35.65701479262417,139.7010428478721,27.62572,-1,-1,-1,-1,30,24.22405316691533,-9999,1747225839.162868,-1.172157287597656,-11.62955474853516,-9.308746337890625,104.0914916992188,112.0601043701172,13.58810710906982,66880.3830955,0.289306640625,-0.4832305908203125,-0.790771484375,66880.3544135,0.05141658708453178,0.01045770104974508,0.184592217206955,66880.3603955,52.58699035644531,-61.34068298339844,-126.9502410888672,66880.3269785,-0.01158227544988602,0.3578569227689913,0.4438006507870721,-0.1063014566898346,0.2812351882457733,0.4737080931663513,-0.05605152249336243,-0.08567026257514954,-0.00738900899887085,XArbitraryCorrectedZVertical,0.2175718674878696,0.1723543672647648,0.03360987279122678,0.9601181753920496,0.3163360059261322,-0.429375022649765,-0.8459129333496094,-1.096885681152344,-11.8078727722168,-9.295951843261719,-1,2,66863.36956454167,walking,2,2025-05-14T21:30:22.152+09:00,null,0,0,0,0,0,0,0,null,66878.279775,0,-0.2430935,101.6868,1747225838.947632,0.0.0.0,192.0.0.2,my_iOS_device,0,1,1747225838.918107,1,0.45,0
2025-05-14T21:30:39.203+09:00,9,1747225837.974268,35.65701479262417,139.7010428478721,27.62572,-1,-1,-1,-1,30,24.22405316691533,-9999,1747225839.182781,-1.403598785400391,-11.73221206665039,-9.074478149414062,104.3388900756836,112.307502746582,13.5881986618042,66880.4167665,0.3918609619140625,-0.3330535888671875,-0.8380126953125,66880.3880835,0.4448917210102081,-0.772879421710968,0.0262217503041029,66880.39072350001,52.22087097167969,-61.30972290039062,-126.5944519042969,66880.38683650001,-0.001587874807295451,0.3460947686830746,0.4544707444825091,0.4396430552005768,-0.7647208571434021,0.0329444631934166,-0.004652589559555054,-0.02282053232192993,0.04254376888275146,XArbitraryCorrectedZVertical,0.2220532244934112,0.1675823915693446,0.03802867782646308,0.9597720773683837,0.3047930300235748,-0.4389868378639221,-0.8452169895172119,-1.358345031738281,-11.67761993408203,-9.29107666015625,-1,2,66863.36956454167,walking,2,2025-05-14T21:30:22.152+09:00,null,0,0,0,0,0,0,0,null,66878.279775,0,-0.2430935,101.6868,1747225838.947632,0.0.0.0,192.0.0.2,my_iOS_device,0,1,1747225838.918107,1,0.45,0
2025-05-14T21:30:39.234+09:00,10,1747225837.974268,35.65701479262417,139.7010428478721,27.62572,-1,-1,-1,-1,30,24.22405316691533,-9999,1747225839.222611,-1.822273254394531,-12.00132369995117,-8.9862060546875,104.6306991577148,112.5993118286133,13.58838081359863,66880.4504365,0.172088623046875,-0.537109375,-0.649688720703125,66880.4217545,0.4153308868408203,-1.189173340797424,0.2628486752510071,66880.4210495,51.99725341796875,-61.5068359375,-126.8545074462891,66880.38683650001,-0.001587874807295451,0.3460947686830746,0.4544707444825091,0.4396430552005768,-0.7647208571434021,0.0329444631934166,-0.004652589559555054,-0.02282053232192993,0.04254376888275146,XArbitraryCorrectedZVertical,0.2220532244934112,0.1675823915693446,0.03802867782646308,0.9597720773683837,0.3047930300235748,-0.4389868378639221,-0.8452169895172119,-1.358345031738281,-11.67761993408203,-9.29107666015625,-1,2,66863.36956454167,walking,2,2025-05-14T21:30:22.152+09:00,null,0,0,0,0,0,0,0,null,66878.279775,0,-0.2430935,101.6868,1747225838.947632,0.0.0.0,192.0.0.2,my_iOS_device,0,1,1747225838.918107,1,0.45,0
2025-05-14T21:30:39.274+09:00,11,1747225837.974268,35.65701479262417,139.7010428478721,27.62572,-1,-1,-1,-1,30,24.22405316691533,-9999,1747225839.26259,-2.391265869140625,-11.73353958129883,-9.096961975097656,105.4856719970703,113.4542846679688,13.58854484558105,66880.48410650001,-0.209503173828125,-0.3675994873046875,-0.7596588134765625,66880.4554245,-1.025107741355896,-1.818816781044006,-0.01302924938499928,66880.48170050001,51.27543640136719,-60.83515930175781,-127.0184020996094,66880.44669550001,0.005035171417184483,0.275897166614938,0.4738867215046458,-0.5759707689285278,-1.557859778404236,0.279599666595459,-0.05363976955413818,-0.0738491415977478,0.1914467811584473,XArbitraryCorrectedZVertical,0.2321652967040452,0.1342543189879122,0.03470229576894879,0.9627413607568818,0.2423910349607468,-0.4563481211662292,-0.8561500906944275,-1.980724334716797,-12.01974868774414,-8.700454711914062,-1,2,66863.36956454167,walking,2,2025-05-14T21:30:22.152+09:00,null,0,0,0,0,0,0,0,null,66878.279775,0,-0.2430935,101.6868,1747225838.947632,0.0.0.0,192.0.0.2,my_iOS_device,0,1,1747225838.918107,1,0.45,0
2025-05-14T21:30:39.313+09:00,12,1747225837.974268,35.65701479262417,139.7010428478721,27.62572,-1,-1,-1,-1,30,24.22405316691533,-9999,1747225839.302472,-2.247909545898438,-11.26816940307617,-9.908226013183594,108.0775756835938,116.0461883544922,13.58864307403564,66880.5177775,-0.015594482421875,-0.3386688232421875,-1.02545166015625,66880.48909450001,-1.685877919197083,-1.519549608230591,-0.9558170437812805,66880.5120265,51.39591979980469,-60.78761291503906,-127.5689697265625,66880.5065535,-0.01269380837745168,0.185768250495715,0.3839918787234162,-1.303591251373291,-0.4206781387329102,-1.230203747749329,-0.2727982103824615,0.04331040382385254,-0.2019196748733521,XArbitraryCorrectedZVertical,0.1905700000747734,0.08983863945199287,0.01149479270803934,0.9774866653282168,0.1712510138750076,-0.3746246099472046,-0.9112241864204407,-2.253192901611328,-11.31798934936523,-9.802497863769531,-1,2,66863.36956454167,walking,2,2025-05-14T21:30:22.152+09:00,null,0,0,0,0,0,0,0,null,66878.279775,0,-0.2430935,101.6868,1747225838.947632,0.0.0.0,192.0.0.2,my_iOS_device,0,1,1747225838.918107,1,0.45,0
2025-05-14T21:30:39.337+09:00,13,1747225837.974268,35.65701479262417,139.7010428478721,27.62572,-1,-1,-1,-1,30,24.22405316691533,-9999,1747225839.322607,-2.146274566650391,-10.94448852539062,-9.966865539550781,109.3304061889648,117.2990188598633,13.58869361877441,66880.55144750001,0.3001708984375,-0.1396636962890625,-1.080917358398438,66880.52276550001,-1.029252886772156,-0.4334997832775116,-1.186137795448303,66880.5423535,51.62698364257812,-60.302001953125,-127.9420776367188,66880.5065535,-0.01269380837745168,0.185768250495715,0.3839918787234162,-1.303591251373291,-0.4206781387329102,-1.230203747749329,-0.2727982103824615,0.04331040382385254,-0.2019196748733521,XArbitraryCorrectedZVertical,0.1905700000747734,0.08983863945199287,0.01149479270803934,0.9774866653282168,0.1712510138750076,-0.3746246099472046,-0.9112241864204407,-2.253192901611328,-11.31798934936523,-9.802497863769531,-1,2,66863.36956454167,walking,2,2025-05-14T21:30:22.152+09:00,null,0,0,0,0,0,0,0,null,66878.279775,0,-0.2430935,101.6868,1747225838.947632,0.0.0.0,192.0.0.2,my_iOS_device,0,1,1747225838.918107,1,0.45,0
2025-05-14T21:30:39.367+09:00,14,1747225837.974268,35.65701479262417,139.7010428478721,27.62572,-1,-1,-1,-1,30,24.22405316691533,-9999,1747225839.362341,-2.100589752197266,-10.64868545532227,-10.20508575439453,110.2629776000977,118.2315902709961,13.58880233764648,66880.5851175,-0.0354766845703125,-0.3034820556640625,-0.986785888671875,66880.55643550001,-0.5228661298751831,-0.1190270557999611,-0.3307121396064758,66880.57268150001,51.51521301269531,-60.11978149414062,-127.7570037841797,66880.5664125,-0.05343524570545691,0.1782307603814028,0.32417927116967,-0.2013392597436905,0.1228548064827919,-0.2510015666484833,-0.07627245783805847,0.143695592880249,-0.2372236847877502,XArbitraryCorrectedZVertical,0.1630293842091079,0.08350546733920007,-0.01190230395376705,0.983009077144572,0.1680541187524796,-0.3185309171676636,-0.9328964948654175,-2.033565521240234,-10.83083724975586,-10.36884307861328,-1,2,66863.36956454167,walking,2,2025-05-14T21:30:22.152+09:00,null,0,0,0,0,0,0,0,null,66878.279775,0,-0.2430935,101.6868,1747225838.947632,0.0.0.0,192.0.0.2,my_iOS_device,0,1,1747225838.918107,1,0.45,0
2025-05-14T21:30:39.402+09:00,15,1747225837.974268,35.65701479262417,139.7010428478721,27.62572,-1,-1,-1,-1,30,24.22405316691533,-9999,1747225839.382359,-1.983207702636719,-10.94165420532227,-10.24560546875,110.769157409668,118.7377700805664,13.58887195587158,66880.61878850001,-0.0601043701171875,-0.2884521484375,-0.855316162109375,66880.5901055,0.2349813580513,-0.2025477737188339,-0.4563334584236145,66880.60301050001,51.69291687011719,-60.4613037109375,-127.6612243652344,66880.5664125,-0.05343524570545691,0.1782307603814028,0.32417927116967,-0.2013392597436905,0.1228548064827919,-0.2510015666484833,-0.07627245783805847,0.143695592880249,-0.2372236847877502,XArbitraryCorrectedZVertical,0.1630293842091079,0.08350546733920007,-0.01190230395376705,0.983009077144572,0.1680541187524796,-0.3185309171676636,-0.9328964948654175,-2.033565521240234,-10.83083724975586,-10.36884307861328,-1,2,66863.36956454167,walking,2,2025-05-14T21:30:22.152+09:00,null,0,0,0,0,0,0,0,null,66878.279775,0,-0.2430935,101.6868,1747225838.947632,0.0.0.0,192.0.0.2,my_iOS_device,0,1,1747225838.918107,1,0.45,0
2025-05-14T21:30:39.437+09:00,16,1747225837.974268,35.65701479262417,139.7010428478721,27.62572,-1,-1,-1,-1,30,24.22405316691533,-9999,1747225839.422245,-2.070426940917969,-11.00580978393555,-9.790679931640625,112.7136154174805,120.6822280883789,13.58897972106934,66880.6524585,-0.0095672607421875,-0.48699951171875,-0.715606689453125,66880.6237765,0.63509202003479,-0.7067201137542725,-0.7547638416290283,66880.63333750001,51.56089782714844,-60.62686157226562,-127.2757568359375,66880.6262705,-0.08857927253214801,0.1705800662358868,0.3350732631782442,0.6812022924423218,-0.7206338047981262,-0.75950026512146,-0.1915175467729568,0.005504518747329712,0.07287657260894775,XArbitraryCorrectedZVertical,0.1697037352651559,0.07655533518806128,-0.0293052691702718,0.9820800596397087,0.1603133678436279,-0.3288383483886719,-0.9306798577308655,-2.052822113037109,-10.82383728027344,-10.11674499511719,-1,2,66880.6088115,unknown,2,2025-05-14T21:30:39.391+09:00,null,0,0,0,0,0,0,0,null,66878.279775,0,-0.2430935,101.6868,1747225838.947632,0.0.0.0,192.0.0.2,my_iOS_device,0,1,1747225838.918107,1,0.45,0
2025-05-14T21:30:39.472+09:00,17,1747225837.974268,35.65701479262417,139.7010428478721,27.62572,-1,-1,-1,-1,30,24.22405316691533,-9999,1747225839.462116,-1.966716766357422,-11.36996841430664,-9.643867492675781,115.0139999389648,122.9826126098633,13.58898735046387,66880.6861295,0.7299041748046875,-0.4508209228515625,-0.276611328125,66880.6574465,1.040300488471985,-0.8467217087745667,-0.9737579226493835,66880.6636635,51.67910766601562,-60.91560363769531,-127.1034240722656,66880.6262705,-0.08857927253214801,0.1705800662358868,0.3350732631782442,0.6812022924423218,-0.7206338047981262,-0.75950026512146,-0.1915175467729568,0.005504518747329712,0.07287657260894775,XArbitraryCorrectedZVertical,0.1697037352651559,0.07655533518806128,-0.0293052691702718,0.9820800596397087,0.1603133678436279,-0.3288383483886719,-0.9306798577308655,-2.052822113037109,-10.82383728027344,-10.11674499511719,-1,2,66880.6088115,unknown,2,2025-05-14T21:30:39.391+09:00,null,0,0,0,0,0,0,0,null,66878.279775,0,-0.2430935,101.6868,1747225838.947632,0.0.0.0,192.0.0.2,my_iOS_device,0,1,1747225838.918107,1,0.45,0
2025-05-14T21:30:39.515+09:00,18,1747225837.974268,35.65701479262417,139.7010428478721,27.62572,-1,-1,-1,-1,30,24.22405316691533,-9999,1747225839.502025,-2.664546966552734,-11.13747406005859,-9.430572509765625,112.9841766357422,120.9527893066406,13.58804321289062,66880.7197995,0.596588134765625,-0.4711456298828125,-0.457916259765625,66880.6911175,0.1746040284633636,-0.6255664229393005,0.7667120695114136,66880.69398950001,51.59210205078125,-60.95022583007812,-127.0282592773438,66880.6861295,-0.1380607851703416,0.1446547194693762,0.3778231894408606,0.3220861256122589,-0.6140742897987366,0.3740033209323883,0.5888861417770386,-0.0854935348033905,0.6559988856315613,XArbitraryCorrectedZVertical,0.1917486747043565,0.05789056830393593,-0.05403312723625632,0.9782442634490719,0.1339837908744812,-0.3688980638980865,-0.9197622537612915,-1.968650817871094,-11.32404327392578,-9.406044006347656,-1,2,66880.6088115,unknown,2,2025-05-14T21:30:39.391+09:00,null,0,0,0,0,0,0,0,null,66878.279775,0,-0.2430935,101.6868,1747225838.947632,0.0.0.0,192.0.0.2,my_iOS_device,0,1,1747225838.918107,1,0.45,0
2025-05-14T21:30:39.537+09:00,19,1747225837.974268,35.65701479262417,139.7010428478721,27.62572,-1,-1,-1,-1,30,24.22405316691533,-9999,1747225839.522139,-3.262004852294922,-10.84760284423828,-9.464752197265625,110.6488265991211,118.6174392700195,13.58805847167969,66880.75346950001,-0.1918182373046875,-0.595306396484375,-1.08819580078125,66880.7247875,-0.9828049540519714,-1.376268148422241,2.289408445358276,66880.72431650001,50.46507263183594,-60.55039978027344,-127.1256866455078,66880.74598750001,-0.03071913083085455,0.06465973065818824,0.3708163865403654,0.2650898694992065,-0.6248425841331482,1.1252601146698,-0.3766291737556458,-0.3039597272872925,-0.6784973740577698,XArbitraryCorrectedZVertical,0.1847176288739964,0.02893657246939289,-0.009129640423383829,0.9823231655967514,0.06022294238209724,-0.3623764514923096,-0.9300841689109802,-3.481819152832031,-10.78808212280273,-9.685142517089844,-1,2,66880.6088115,unknown,2,2025-05-14T21:30:39.391+09:00,null,0,0,0,0,0,0,0,null,66878.279775,0,-0.2430935,101.6868,1747225838.947632,0.0.0.0,192.0.0.2,my_iOS_device,0,1,1747225838.918107,1,0.45,0
2025-05-14T21:30:39.572+09:00,20,1747225837.974268,35.65701479262417,139.7010428478721,27.62572,-1,-1,-1,-1,30,24.22405316691533,-9999,1747225839.561813,-3.847537994384766,-10.54692840576172,-9.629852294921875,109.6245574951172,117.5931701660156,13.58688259124756,66880.7871405,-0.02752685546875,-0.2813568115234375,-0.9725341796875,66880.75845750001,-0.1719645708799362,-0.8732313513755798,0.1919912695884705,66880.78496450001,49.97071838378906,-59.92640686035156,-127.4567260742188,66880.74598750001,-0.03071913083085455,0.06465973065818824,0.3708163865403654,0.2650898694992065,-0.6248425841331482,1.1252601146698,-0.3766291737556458,-0.3039597272872925,-0.6784973740577698,XArbitraryCorrectedZVertical,0.1847176288739964,0.02893657246939289,-0.009129640423383829,0.9823231655967514,0.06022294238209724,-0.3623764514923096,-0.9300841689109802,-3.481819152832031,-10.78808212280273,-9.685142517089844,-1,2,66880.6088115,unknown,2,2025-05-14T21:30:39.391+09:00,null,0,0,0,0,0,0,0,null,66878.279775,0,-0.2430935,101.6868,1747225838.947632,0.0.0.0,192.0.0.2,my_iOS_device,0,1,1747225838.918107,1,0.45,0
2025-05-14T21:30:39.607+09:00,21,1747225837.974268,35.65701479262417,139.7010428478721,27.62572,-1,-1,-1,-1,30,24.22405316691533,-9999,1747225839.601771,-3.555770874023438,-10.30522918701172,-10.10082244873047,110.6033477783203,118.5719604492188,13.58499145507812,66880.82081050001,0.063873291015625,-0.506103515625,-0.954986572265625,66880.7921285,-0.3978458940982819,0.7230532765388489,-0.3251399993896484,66880.81528950001,50.13116455078125,-59.83819580078125,-127.7753448486328,66880.8058455,-0.03618520655857291,0.07012793635938568,0.3507623384826918,-0.4921487271785736,0.2641548812389374,-0.7900838255882263,0.00456961989402771,-0.1953572332859039,0.05319684743881226,XArbitraryCorrectedZVertical,0.1749721788787436,0.03135861771294964,-0.01168731457535598,0.9840045028352801,0.06580395251512527,-0.3436138331890106,-0.9368027448654175,-3.658157348632812,-10.32335662841797,-9.938148498535156,-1,2,66880.6088115,unknown,2,2025-05-14T21:30:39.391+09:00,null,0,0,0,0,0,0,0,null,66878.279775,0,-0.2430935,101.6868,1747225838.947632,0.0.0.0,192.0.0.2,my_iOS_device,0,1,1747225838.918107,1,0.45,0
2025-05-14T21:30:39.637+09:00,22,1747225837.974268,35.65701479262417,139.7010428478721,27.62572,-1,-1,-1,-1,30,24.22405316691533,-9999,1747225839.621764,-3.352493286132812,-9.972007751464844,-10.69678497314453,111.7635269165039,119.7321395874023,13.58416652679443,66880.8544805,0.2967071533203125,-0.0052642822265625,-0.99365234375,66880.82579850001,-1.191207766532898,0.5399055480957031,-1.199678182601929,66880.84561650001,50.56806945800781,-59.3236083984375,-128.6768035888672,66880.8058455,-0.03618520655857291,0.07012793635938568,0.3507623384826918,-0.4921487271785736,0.2641548812389374,-0.7900838255882263,0.00456961989402771,-0.1953572332859039,0.05319684743881226,XArbitraryCorrectedZVertical,0.1749721788787436,0.03135861771294964,-0.01168731457535598,0.9840045028352801,0.06580395251512527,-0.3436138331890106,-0.9368027448654175,-3.658157348632812,-10.32335662841797,-9.938148498535156,-1,2,66880.6088115,unknown,2,2025-05-14T21:30:39.391+09:00,null,0,0,0,0,0,0,0,null,66878.279775,0,-0.2430935,101.6868,1747225838.947632,0.0.0.0,192.0.0.2,my_iOS_device,0,1,1747225838.918107,1,0.45,0
2025-05-14T21:30:39.673+09:00,23,1747225837.974268,35.65701479262417,139.7010428478721,27.62572,-1,-1,-1,-1,30,24.22405316691533,-9999,1747225839.661645,-3.315032958984375,-9.304328918457031,-11.26350402832031,112.3606338500977,120.3292465209961,13.5828161239624,66880.88815150001,0.24798583984375,0.059967041015625,-1.2703857421875,66880.8594685,-1.404620409011841,-0.1083091646432877,-0.2056674063205719,66880.8759425,50.27244567871094,-58.77450561523438,-128.8669891357422,66880.8657045,-0.07949412227903664,0.09919841757121846,0.2715220376640137,-1.091957569122314,-0.03567371889948845,0.05681834369897842,0.2813777923583984,0.382043719291687,-0.2703760862350464,XArbitraryCorrectedZVertical,0.1370231200490561,0.0437123715774939,-0.03261762456766174,0.9890652399556478,0.09540750831365585,-0.2681980133056641,-0.9586277604103088,-3.178745269775391,-9.456684112548828,-11.25588989257812,-1,2,66880.6088115,unknown,2,2025-05-14T21:30:39.391+09:00,null,0,0,0,0,0,0,0,null,66878.279775,0,-0.2430935,101.6868,1747225838.947632,0.0.0.0,192.0.0.2,my_iOS_device,0,1,1747225838.918107,1,0.45,0
2025-05-14T21:30:39.713+09:00,24,1747225837.974268,35.65701479262417,139.7010428478721,27.62572,-1,-1,-1,-1,30,24.22405316691533,-9999,1747225839.701549,-3.198711395263672,-9.35107421875,-11.28253173828125,111.3297958374023,119.2984085083008,13.58280563354492,66880.9218215,0.1200408935546875,-0.3285675048828125,-0.84954833984375,66880.89313950001,0.07342388480901718,0.3552121520042419,0.5160407423973083,66880.90626850001,50.49623107910156,-58.71142578125,-128.9281616210938,66880.8657045,-0.07949412227903664,0.09919841757121846,0.2715220376640137,-1.091957569122314,-0.03567371889948845,0.05681834369897842,0.2813777923583984,0.382043719291687,-0.2703760862350464,XArbitraryCorrectedZVertical,0.1370231200490561,0.0437123715774939,-0.03261762456766174,0.9890652399556478,0.09540750831365585,-0.2681980133056641,-0.9586277604103088,-3.178745269775391,-9.456684112548828,-11.25588989257812,-1,2,66880.6088115,unknown,2,2025-05-14T21:30:39.391+09:00,null,0,0,0,0,0,0,0,null,66879.287578,0,-0.2113857,101.6864,1747225838.947632,0.0.0.0,192.0.0.2,my_iOS_device,0,1,1747225838.918107,1,0.45,0
2025-05-14T21:30:39.754+09:00,25,1747225837.974268,35.65701479262417,139.7010428478721,27.62572,-1,-1,-1,-1,30,24.22405316691533,-9999,1747225839.741508,-3.491214752197266,-8.792858123779297,-11.4276123046875,110.740608215332,118.7092208862305,13.58283233642578,66880.95549237501,-0.0268096923828125,-0.233428955078125,-1.188278198242188,66880.9268095,-0.3724673092365265,-0.2763647437095642,0.1650219708681107,66880.9365925,50.16201782226562,-58.48829650878906,-128.9612274169922,66880.92556250001,-0.05650140465289747,0.09901180035991219,0.2597618356061899,-0.3616308271884918,-0.2854784429073334,0.1695312112569809,-0.01478425413370132,-0.07290738821029663,0.09420996904373169,XArbitraryCorrectedZVertical,0.1306918036994619,0.04539534527209692,-0.02156808013380722,0.9901484197284575,0.09553380310535431,-0.256850391626358,-0.9617178440093994,-3.357139587402344,-9.080692291259766,-11.19149780273438,-1,2,66880.6088115,unknown,2,2025-05-14T21:30:39.391+09:00,null,0,0,0,0,0,0,0,null,66879.287578,0,-0.2113857,101.6864,1747225838.947632,0.0.0.0,192.0.0.2,my_iOS_device,0,1,1747225838.918107,1,0.45,0
2025-05-14T21:30:39.771+09:00,26,1747225837.974268,35.65701479262417,139.7010428478721,27.62572,-1,-1,-1,-1,30,24.22405316691533,-9999,1747225839.761565,-3.524856567382812,-8.735355377197266,-11.82391357421875,110.1555633544922,118.1241760253906,13.58289623260498,66880.989162375,0.1439361572265625,-0.28729248046875,-1.09759521484375,66880.960480375,-0.5554368495941162,0.4106671512126923,0.4496206939220428,66880.96691837501,50.25259399414062,-58.27272033691406,-129.3414764404297,66880.92556250001,-0.05650140465289747,0.09901180035991219,0.2597618356061899,-0.3616308271884918,-0.2854784429073334,0.1695312112569809,-0.01478425413370132,-0.07290738821029663,0.09420996904373169,XArbitraryCorrectedZVertical,0.1306918036994619,0.04539534527209692,-0.02156808013380722,0.9901484197284575,0.09553380310535431,-0.256850391626358,-0.9617178440093994,-3.357139587402344,-9.080692291259766,-11.19149780273438,-1,2,66880.6088115,unknown,2,2025-05-14T21:30:39.391+09:00,null,0,0,0,0,0,0,0,null,66879.287578,0,-0.2113857,101.6864,1747225838.947632,0.0.0.0,192.0.0.2,my_iOS_device,0,1,1747225838.918107,1,0.45,0
2025-05-14T21:30:39.806+09:00,27,1747225837.974268,35.65701479262417,139.7010428478721,27.62572,-1,-1,-1,-1,30,24.22405316691533,-9999,1747225839.801333,-3.052654266357422,-8.143058776855469,-12.29434967041016,109.2901763916016,117.2587890625,13.5830774307251,66881.02283237501,0.2254638671875,-0.3668060302734375,-0.8779144287109375,66880.994150375,-1.045486688613892,1.135974764823914,0.2022132873535156,66880.99724537501,50.63873291015625,-58.09135437011719,-129.3787231445312,66880.98542137501,-0.03211383303631389,0.1118241035431788,0.2271519203397261,-0.9681521654129028,1.101445436477661,0.3625635504722595,0.02886392921209335,-0.05586348474025726,-0.141514778137207,XArbitraryCorrectedZVertical,0.1140317233094486,0.05369887700323499,-0.009595346895475072,0.9919785273017144,0.1087246164679527,-0.2252035290002823,-0.9682263731956482,-3.445510864257812,-8.591197967529297,-11.80026245117188,-1,2,66880.6088115,unknown,2,2025-05-14T21:30:39.391+09:00,null,0,0,0,0,0,0,0,null,66879.287578,0,-0.2113857,101.6864,1747225838.947632,0.0.0.0,192.0.0.2,my_iOS_device,0,1,1747225838.918107,1,0.45,0
2025-05-14T21:30:39.841+09:00,28,1747225837.974268,35.65701479262417,139.7010428478721,27.62572,-1,-1,-1,-1,30,24.22405316691533,-9999,1747225839.821274,-2.931385040283203,-7.879302978515625,-12.47907257080078,109.2436065673828,117.2122192382812,13.58316707611084,66881.056503375,0.2070770263671875,-0.0529327392578125,-1.03302001953125,66881.02782037501,-0.9561488628387451,0.4914429783821106,-0.1126575693488121,66881.05789537501,50.70341491699219,-57.40054321289062,-130.0530700683594,66881.045279375,-0.023195720605411,0.1540452295689288,0.1703242467867137,-0.5914762020111084,0.009601414203643799,-0.1764773577451706,0.06664857268333435,0.06526902318000793,-0.02516371011734009,XArbitraryCorrectedZVertical,0.08569048788719855,0.07567889915343089,-0.004976742917054262,0.9934310441569101,0.151216447353363,-0.1695019155740738,-0.9738596677780151,-2.871719360351562,-7.732700347900391,-12.58356475830078,-1,2,66880.6088115,unknown,2,2025-05-14T21:30:39.391+09:00,null,0,0,0,0,0,0,0,null,66879.287578,0,-0.2113857,101.6864,1747225838.947632,0.0.0.0,192.0.0.2,my_iOS_device,0,1,1747225838.918107,1,0.45,0
2025-05-14T21:30:39.876+09:00,29,1747225837.974268,35.65701479262417,139.7010428478721,27.62572,-1,-1,-1,-1,30,24.22405316691533,-9999,1747225839.861065,-3.013694763183594,-7.674385070800781,-12.48976135253906,109.3097534179688,117.2783660888672,13.58333873748779,66881.09017337501,0.14459228515625,-0.1298370361328125,-0.91436767578125,66881.061491375,-0.2135341167449951,-0.1297950148582458,-0.01571531407535076,66881.088219375,50.635986328125,-57.37631225585938,-130.4130554199219,66881.045279375,-0.023195720605411,0.1540452295689288,0.1703242467867137,-0.5914762020111084,0.009601414203643799,-0.1764773577451706,0.06664857268333435,0.06526902318000793,-0.02516371011734009,XArbitraryCorrectedZVertical,0.08569048788719855,0.07567889915343089,-0.004976742917054262,0.9934310441569101,0.151216447353363,-0.1695019155740738,-0.9738596677780151,-2.871719360351562,-7.732700347900391,-12.58356475830078,-1,2,66880.6088115,unknown,2,2025-05-14T21:30:39.391+09:00,null,0,0,0,0,0,0,0,null,66879.287578,0,-0.2113857,101.6864,1747225838.947632,0.0.0.0,192.0.0.2,my_iOS_device,0,1,1747225838.918107,1,0.45,0
2025-05-14T21:30:39.915+09:00,30,1747225837.974268,35.65701479262417,139.7010428478721,27.62572,-1,-1,-1,-1,30,24.22405316691533,-9999,1747225839.901106,-3.227935791015625,-7.617626190185547,-12.69679260253906,108.7202529907227,116.6888656616211,13.58351421356201,66881.123843375,0.088165283203125,-0.166046142578125,-1.024612426757812,66881.09516137501,-0.3113940954208374,-0.3363077044487,0.3065921664237976,66881.118546375,50.30699157714844,-56.75831604003906,-130.3340606689453,66881.105138375,-0.01253132934201074,0.140221563734465,0.1563952351668381,-0.4771991074085236,-0.3818226754665375,0.2010709792375565,-0.001246377825737,-0.1292453110218048,0.05759835243225098,XArbitraryCorrectedZVertical,0.07836208142880011,0.06934965160525733,-0.000758814396938701,0.9945097245931127,0.1380567252635956,-0.1557584553956985,-0.9781000018119812,-3.122829437255859,-7.656974792480469,-12.62965393066406,-1,2,66880.6088115,unknown,2,2025-05-14T21:30:39.391+09:00,null,0,0,0,0,0,0,0,null,66879.287578,0,-0.2113857,101.6864,1747225838.947632,0.0.0.0,192.0.0.2,my_iOS_device,0,1,1747225838.918107,1,0.45,0
2025-05-14T21:30:39.952+09:00,31,1747225837.974268,35.65701479262417,139.7010428478721,27.62572,-1,-1,-1,-1,30,24.22405316691533,-9999,1747225839.940916,-3.308799743652344,-7.098575592041016,-12.68679046630859,108.6003570556641,116.5689697265625,13.5836935043335,66881.15751437501,0.0622100830078125,-0.0933990478515625,-1.100738525390625,66881.12883237501,-0.5723833441734314,-0.1626001000404358,-0.01113494299352169,66881.14886837501,50.33285522460938,-56.55792236328125,-130.2253723144531,66881.105138375,-0.01253132934201074,0.140221563734465,0.1563952351668381,-0.4771991074085236,-0.3818226754665375,0.2010709792375565,-0.001246377825737,-0.1292453110218048,0.05759835243225098,XArbitraryCorrectedZVertical,0.07836208142880011,0.06934965160525733,-0.000758814396938701,0.9945097245931127,0.1380567252635956,-0.1557584553956985,-0.9781000018119812,-3.122829437255859,-7.656974792480469,-12.62965393066406,-1,2,66880.6088115,unknown,2,2025-05-14T21:30:39.391+09:00,null,0,0,0,0,0,0,0,null,66879.287578,0,-0.2113857,101.6864,1747225838.947632,0.0.0.0,192.0.0.2,my_iOS_device,0,1,1747225838.918107,1,0.45,0
2025-05-14T21:30:39.976+09:00,32,1747225837.974268,35.65701479262417,139.7010428478721,27.62572,-1,-1,-1,-1,30,24.22405316691533,-9999,1747225839.961094,-3.278713226318359,-6.941658020019531,-12.93683624267578,108.3444671630859,116.3130798339844,13.58379459381104,66881.191184375,0.1942596435546875,-0.0687255859375,-0.893157958984375,66881.16250237501,-0.8605139255523682,0.3579360246658325,0.1039634197950363,66881.17919537501,50.40312194824219,-56.46481323242188,-130.472900390625,66881.16499637501,-0.004005210066564582,0.1370267149991485,0.1185499188509945,-0.8720071911811829,0.3256513178348541,0.1260040700435638,-0.0592692643404007,0.0409407839179039,-0.05746418237686157,XArbitraryCorrectedZVertical,0.05923800007161938,0.06822103357684406,0.002061168043404772,0.9959080208081339,0.1356395483016968,-0.1182724311947823,-0.9836735129356384,-3.411769866943359,-7.017330169677734,-13.00235748291016,-1,2,66880.6088115,unknown,2,2025-05-14T21:30:39.391+09:00,null,0,0,0,0,0,0,0,null,66879.287578,0,-0.2113857,101.6864,1747225838.947632,0.0.0.0,192.0.0.2,my_iOS_device,0,1,1747225838.918107,1,0.45,0
2025-05-14T21:30:40.011+09:00,33,1747225837.974268,35.65701479262417,139.7010428478721,27.62572,-1,-1,-1,-1,30,24.22405316691533,-9999,1747225840.000761,-3.476982116699219,-6.472122192382812,-13.09815979003906,107.747428894043,115.7160415649414,13.58398723602295,66881.22485537501,0.08013916015625,-0.2378387451171875,-1.031570434570312,66881.19617337501,-0.7405287027359009,-0.2775487899780273,0.3732598721981049,66881.20952037501,50.12437438964844,-55.95968627929688,-130.6678009033203,66881.16499637501,-0.004005210066564582,0.1370267149991485,0.1185499188509945,-0.8720071911811829,0.3256513178348541,0.1260040700435638,-0.0592692643404007,0.0409407839179039,-0.05746418237686157,XArbitraryCorrectedZVertical,0.05923800007161938,0.06822103357684406,0.002061168043404772,0.9959080208081339,0.1356395483016968,-0.1182724311947823,-0.9836735129356384,-3.411769866943359,-7.017330169677734,-13.00235748291016,-1,2,66880.6088115,unknown,2,2025-05-14T21:30:39.391+09:00,null,0,0,0,0,0,0,0,null,66879.287578,0,-0.2113857,101.6864,1747225838.947632,0.0.0.0,192.0.0.2,my_iOS_device,0,1,1747225838.918107,1,0.45,0
2025-05-14T21:30:40.041+09:00,34,1747225837.974268,35.65701479262417,139.7010428478721,27.62572,-1,-1,-1,-1,30,24.22405316691533,-9999,1747225840.020686,-3.489227294921875,-6.266914367675781,-12.99545288085938,107.3444900512695,115.313102722168,13.58407878875732,66881.258525375,0.0531463623046875,-0.0703277587890625,-1.079498291015625,66881.22984337501,-0.6443259716033936,-0.1646571308374405,0.2662490010261536,66881.239844375,50.08021545410156,-55.53741455078125,-130.9087371826172,66881.22485537501,0.02097234774442063,0.1269409131023521,0.07169163669197726,-0.7956389188766479,-0.2840802669525146,0.2675062119960785,-0.05519957840442657,-0.1395820081233978,-0.07791602611541748,XArbitraryCorrectedZVertical,0.03509933430108566,0.06375865535572602,0.01273115471263184,0.997266744715169,0.1262750625610352,-0.07163023948669434,-0.9894057512283325,-3.499591827392578,-6.401329040527344,-13.17739868164062,-1,2,66880.6088115,unknown,2,2025-05-14T21:30:39.391+09:00,null,0,0,0,0,0,0,0,null,66879.287578,0,-0.2113857,101.6864,1747225838.947632,0.0.0.0,192.0.0.2,my_iOS_device,0,1,1747225838.918107,1,0.45,0
2025-05-14T21:30:40.075+09:00,35,1747225837.974268,35.65701479262417,139.7010428478721,27.62572,-1,-1,-1,-1,30,24.22405316691533,-9999,1747225840.060649,-3.701740264892578,-6.110191345214844,-13.31759643554688,107.1461944580078,115.1148071289062,13.5842866897583,66881.292195375,0.1248779296875,-0.0028228759765625,-0.963836669921875,66881.263513375,-0.09266042709350586,-0.238984614610672,-0.01507828570902348,66881.27017037501,49.92103576660156,-55.64022827148438,-130.9082336425781,66881.284713375,0.02924498649156342,0.1165307359241689,0.05813082966462624,-0.1396650969982147,-0.281549870967865,0.1603131890296936,0.01304911822080612,0.05982225015759468,-0.04465353488922119,XArbitraryCorrectedZVertical,0.02815779165919883,0.0586257989103585,0.01628312325016674,0.9977500089203081,0.1160707920789719,-0.05809809640049934,-0.9915403127670288,-3.793685913085938,-6.115608215332031,-13.31980895996094,-1,2,66880.6088115,unknown,2,2025-05-14T21:30:39.391+09:00,null,0,0,0,0,0,0,0,null,66879.287578,0,-0.2113857,101.6864,1747225838.947632,0.0.0.0,192.0.0.2,my_iOS_device,0,1,1747225838.918107,1,0.45,0
2025-05-14T21:30:40.115+09:00,36,1747225837.974268,35.65701479262417,139.7010428478721,27.62572,-1,-1,-1,-1,30,24.22405316691533,-9999,1747225840.100608,-4.007160186767578,-6.014606475830078,-13.15176391601562,106.7353439331055,114.7039566040039,13.58450031280518,66881.325866375,0.1271820068359375,-0.0264739990234375,-0.9525299072265625,66881.297184375,-0.1010784134268761,-0.5094534158706665,0.1877232939004898,66881.30049337501,49.79574584960938,-55.50474548339844,-131.0543975830078,66881.284713375,0.02924498649156342,0.1165307359241689,0.05813082966462624,-0.1396650969982147,-0.281549870967865,0.1603131890296936,0.01304911822080612,0.05982225015759468,-0.04465353488922119,XArbitraryCorrectedZVertical,0.02815779165919883,0.0586257989103585,0.01628312325016674,0.9977500089203081,0.1160707920789719,-0.05809809640049934,-0.9915403127670288,-3.793685913085938,-6.115608215332031,-13.31980895996094,-1,2,66880.6088115,unknown,2,2025-05-14T21:30:39.391+09:00,null,0,0,0,0,0,0,0,null,66879.287578,0,-0.2113857,101.6864,1747225838.947632,0.0.0.0,192.0.0.2,my_iOS_device,0,1,1747225838.918107,1,0.45,0
2025-05-14T21:30:40.153+09:00,37,1747225837.974268,35.65701479262417,139.7010428478721,27.62572,-1,-1,-1,-1,30,24.22405316691533,-9999,1747225840.14043,-4.335044860839844,-5.966190338134766,-13.12472534179688,106.5514221191406,114.5200347900391,13.58470249176025,66881.35953637501,0.18682861328125,-0.0197296142578125,-1.00628662109375,66881.330854375,0.1268255859613419,-0.7295956015586853,0.0744558572769165,66881.361142375,49.02082824707031,-55.48185729980469,-130.6634674072266,66881.344572375,0.03751243224979305,0.07762813345048587,0.05984811620043123,0.2283808141946793,-0.6847684979438782,0.07429158687591553,0.07209429889917374,0.07333159446716309,-0.02809667587280273,XArbitraryCorrectedZVertical,0.02916434404339702,0.03934084783456911,0.01989340462405849,0.9986020670055045,0.07741134613752365,-0.05981239676475525,-0.9952034950256348,-4.302970886230469,-6.021389007568359,-13.13595581054688,-1,2,66880.6088115,unknown,2,2025-05-14T21:30:39.391+09:00,null,0,0,0,0,0,0,0,null,66879.287578,0,-0.2113857,101.6864,1747225838.947632,0.0.0.0,192.0.0.2,my_iOS_device,0,1,1747225838.918107,1,0.45,0
2025-05-14T21:30:40.175+09:00,38,1747225837.974268,35.65701479262417,139.7010428478721,27.62572,-1,-1,-1,-1,30,24.22405316691533,-9999,1747225840.16064,-4.627052307128906,-5.948139190673828,-13.09593200683594,106.4185333251953,114.3871459960938,13.58480262756348,66881.393207375,0.0767364501953125,0.04071044921875,-0.9260711669921875,66881.364525375,0.1002895832061768,-0.7198377847671509,0.106987439095974,66881.39146337501,48.82498168945312,-55.56637573242188,-130.5167999267578,66881.344572375,0.03751243224979305,0.07762813345048587,0.05984811620043123,0.2283808141946793,-0.6847684979438782,0.07429158687591553,0.07209429889917374,0.07333159446716309,-0.02809667587280273,XArbitraryCorrectedZVertical,0.02916434404339702,0.03934084783456911,0.01989340462405849,0.9986020670055045,0.07741134613752365,-0.05981239676475525,-0.9952034950256348,-4.302970886230469,-6.021389007568359,-13.13595581054688,-1,2,66880.6088115,unknown,2,2025-05-14T21:30:39.391+09:00,null,0,0,0,0,0,0,0,null,66879.287578,0,-0.2113857,101.6864,1747225838.947632,0.0.0.0,192.0.0.2,my_iOS_device,0,1,1747225838.918107,1,0.45,0
2025-05-14T21:30:40.210+09:00,39,1747225837.974268,35.65701479262417,139.7010428478721,27.62572,-1,-1,-1,-1,30,24.22405316691533,-9999,1747225840.200285,-5.114788055419922,-5.999626159667969,-13.00706481933594,105.7827606201172,113.7513732910156,13.58498287200928,66881.42687737501,-0.0418548583984375,0.09417724609375,-1.003753662109375,66881.398195375,0.07289791107177734,-1.037890315055847,0.270255446434021,66881.42179037501,48.27755737304688,-55.60624694824219,-130.5285186767578,66881.404430375,0.04857489004147165,0.02412118310851944,0.06695010264571716,0.06198986619710922,-0.8155171275138855,0.2555133998394012,-0.04667831584811211,-0.03583741188049316,-0.1057409644126892,XArbitraryCorrectedZVertical,0.0331637724630898,0.0128627193081582,0.02467320973322465,0.9990625995516857,0.02406481094658375,-0.0669000968337059,-0.997469425201416,-5.040378570556641,-5.876659393310547,-12.94296264648438,-1,2,66880.6088115,unknown,2,2025-05-14T21:30:39.391+09:00,null,0,0,0,0,0,0,0,null,66879.287578,0,-0.2113857,101.6864,1747225838.947632,0.0.0.0,192.0.0.2,my_iOS_device,0,1,1747225838.918107,1,0.45,0
2025-05-14T21:30:40.245+09:00,40,1747225837.974268,35.65701479262417,139.7010428478721,27.62572,-1,-1,-1,-1,30,24.22405316691533,-9999,1747225840.240237,-5.527259826660156,-6.075908660888672,-13.03754425048828,104.7372360229492,112.7058486938477,13.58517074584961,66881.460547375,-0.05816650390625,-0.1469879150390625,-0.96722412109375,66881.43186537501,0.6362534165382385,-0.7691044211387634,0.5734725594520569,66881.452116375,48.0635986328125,-55.62957763671875,-130.6992034912109,66881.404430375,0.04857489004147165,0.02412118310851944,0.06695010264571716,0.06198986619710922,-0.8155171275138855,0.2555133998394012,-0.04667831584811211,-0.03583741188049316,-0.1057409644126892,XArbitraryCorrectedZVertical,0.0331637724630898,0.0128627193081582,0.02467320973322465,0.9990625995516857,0.02406481094658375,-0.0669000968337059,-0.997469425201416,-5.040378570556641,-5.876659393310547,-12.94296264648438,-1,2,66880.6088115,unknown,2,2025-05-14T21:30:39.391+09:00,null,0,0,0,0,0,0,0,null,66879.287578,0,-0.2113857,101.6864,1747225838.947632,0.0.0.0,192.0.0.2,my_iOS_device,0,1,1747225838.918107,1,0.45,0
2025-05-14T21:30:40.280+09:00,41,1747225837.974268,35.65701479262417,139.7010428478721,27.62572,-1,-1,-1,-1,30,24.22405316691533,-9999,1747225840.260138,-5.76824951171875,-6.056838989257812,-12.49811553955078,104.4380645751953,112.4066772460938,13.58525943756104,66881.49421837501,0.0250701904296875,0.0331878662109375,-1.181884765625,66881.46553637501,-0.424207478761673,-0.5454758405685425,0.2721726596355438,66881.48244037501,47.99488830566406,-55.22357177734375,-129.9332275390625,66881.464289375,0.07243156135073385,-0.02183617160994982,0.08004394871198126,-0.4143447279930115,-0.5693520307540894,0.2749870717525482,-0.03852293640375137,-0.05672982335090637,-0.01824045181274414,XArbitraryCorrectedZVertical,0.04037766517821125,-0.009453335370724002,0.03574016018859841,0.9985003977832615,-0.02176452614367008,-0.07995849847793579,-0.9965605735778809,-5.650592803955078,-5.962474822998047,-12.76103973388672,-1,2,66880.6088115,unknown,2,2025-05-14T21:30:39.391+09:00,null,0,0,0,0,0,0,0,null,66879.287578,0,-0.2113857,101.6864,1747225838.947632,0.0.0.0,192.0.0.2,my_iOS_device,0,1,1747225838.918107,1,0.45,0
2025-05-14T21:30:40.312+09:00,42,1747225837.974268,35.65701479262417,139.7010428478721,27.62572,-1,-1,-1,-1,30,24.22405316691533,-9999,1747225840.300326,-5.897335052490234,-5.508876800537109,-12.609375,103.9172134399414,111.8858261108398,13.58546257019043,66881.527888375,0.1974639892578125,0.1142120361328125,-1.137176513671875,66881.49920637501,-0.5335219502449036,0.09376990050077438,0.2171940952539444,66881.51276537501,47.74880981445312,-55.00381469726562,-130.321533203125,66881.464289375,0.07243156135073385,-0.02183617160994982,0.08004394871198126,-0.4143447279930115,-0.5693520307540894,0.2749870717525482,-0.03852293640375137,-0.05672982335090637,-0.01824045181274414,XArbitraryCorrectedZVertical,0.04037766517821125,-0.009453335370724002,0.03574016018859841,0.9985003977832615,-0.02176452614367008,-0.07995849847793579,-0.9965605735778809,-5.650592803955078,-5.962474822998047,-12.76103973388672,-1,2,66880.6088115,unknown,2,2025-05-14T21:30:39.391+09:00,null,0,0,0,0,0,0,0,null,66879.287578,0,-0.2113857,101.6864,1747225838.947632,0.0.0.0,192.0.0.2,my_iOS_device,0,1,1747225838.918107,1,0.45,0
2025-05-14T21:30:40.355+09:00,43,1747225837.974268,35.65701479262417,139.7010428478721,27.62572,-1,-1,-1,-1,30,24.22405316691533,-9999,1747225840.340023,-5.916858673095703,-5.200206756591797,-12.70095825195312,102.2343368530273,110.2029495239258,13.5856990814209,66881.561559375,-0.0678253173828125,-0.195831298828125,-0.9576873779296875,66881.532876375,-0.4867440760135651,0.3516174256801605,0.805518627166748,66881.543091375,47.82977294921875,-54.78297424316406,-130.3150024414062,66881.52414737501,0.08924872009970805,-0.02423120605191396,0.049697411899614,-0.4606518447399139,0.3590933978557587,0.6453887224197388,0.2244095057249069,0.1744022071361542,-0.1563587784767151,XArbitraryCorrectedZVertical,0.02535988269043729,-0.01099121464943419,0.04429178490706717,0.9986362849490112,-0.02419892139732838,-0.04967695847153664,-0.9984721541404724,-5.773735046386719,-5.34405517578125,-12.72944641113281,-1,2,66880.6088115,unknown,2,2025-05-14T21:30:39.391+09:00,null,0,0,0,0,0,0,0,null,66879.287578,0,-0.2113857,101.6864,1747225838.947632,0.0.0.0,192.0.0.2,my_iOS_device,0,1,1747225838.918107,1,0.45,0
2025-05-14T21:30:40.380+09:00,44,1747225837.974268,35.65701479262417,139.7010428478721,27.62572,-1,-1,-1,-1,30,24.22405316691533,-9999,1747225840.360036,-5.913330078125,-4.950138092041016,-12.69339752197266,101.3364410400391,109.3050537109375,13.58581733703613,66881.595229375,0.08551025390625,-0.164154052734375,-0.84539794921875,66881.566547375,-0.6130381226539612,-0.08874078840017319,0.795592725276947,66881.57341737501,47.72683715820312,-54.42800903320312,-130.2855072021484,66881.58400637501,0.1386555816721693,-0.02186949643424535,0.0164355880344866,-0.4369814395904541,-0.4218628406524658,1.023569345474243,0.06510821729898453,-0.01484575681388378,0.1599346995353699,XArbitraryCorrectedZVertical,0.008954903666740325,-0.01033866905595981,0.06917613925680163,0.9975108151034313,-0.02186479978263378,-0.01643484830856323,-0.9996258616447449,-6.077239990234375,-4.798542022705078,-12.70738983154297,-1,2,66880.6088115,unknown,2,2025-05-14T21:30:39.391+09:00,null,0,0,0,0,0,0,0,null,66879.287578,0,-0.2113857,101.6864,1747225838.947632,0.0.0.0,192.0.0.2,my_iOS_device,0,1,1747225838.918107,1,0.45,0
2025-05-14T21:30:40.415+09:00,45,1747225837.974268,35.65701479262417,139.7010428478721,27.62572,-1,-1,-1,-1,30,24.22405316691533,-9999,1747225840.400332,-6.496780395507812,-4.596294403076172,-12.76289367675781,99.37281036376953,107.341423034668,13.58603954315186,66881.628900375,-0.1389617919921875,-0.08099365234375,-1.00537109375,66881.600217375,-0.0689721405506134,-0.6264018416404724,0.8642416000366211,66881.603743375,47.16549682617188,-54.13052368164062,-130.4758453369141,66881.58400637501,0.1386555816721693,-0.02186949643424535,0.0164355880344866,-0.4369814395904541,-0.4218628406524658,1.023569345474243,0.06510821729898453,-0.01484575681388378,0.1599346995353699,XArbitraryCorrectedZVertical,0.008954903666740325,-0.01033866905595981,0.06917613925680163,0.9975108151034313,-0.02186479978263378,-0.01643484830856323,-0.9996258616447449,-6.077239990234375,-4.798542022705078,-12.70738983154297,-1,2,66880.6088115,unknown,2,2025-05-14T21:30:39.391+09:00,null,0,0,0,0,0,0,0,null,66879.287578,0,-0.2113857,101.6864,1747225838.947632,0.0.0.0,192.0.0.2,my_iOS_device,0,1,1747225838.918107,1,0.45,0
2025-05-14T21:30:40.445+09:00,46,1747225837.974268,35.65701479262417,139.7010428478721,27.62572,-1,-1,-1,-1,30,24.22405316691533,-9999,1747225840.43978,-6.80535888671875,-4.640659332275391,-12.28659820556641,98.80854034423828,106.7771530151367,13.58624458312988,66881.662570375,-0.0985260009765625,0.112579345703125,-1.136871337890625,66881.633888375,0.4896948635578156,-0.45248943567276,0.1157162114977837,66881.634068375,46.92405700683594,-54.0509033203125,-129.9381561279297,66881.643864375,0.1702200049146544,-0.06309609237375423,0.02518275877529096,0.3966042399406433,-0.4675331115722656,0.1733697205781937,-0.209487721323967,0.06676021218299866,-0.1101248860359192,XArbitraryCorrectedZVertical,0.0152203843042359,-0.03035634812535671,0.08456253031829561,0.9958393879498568,-0.06303424388170242,-0.02518009766936302,-0.997693657875061,-6.577217102050781,-4.576763153076172,-12.47313690185547,-1,2,66880.6088115,unknown,2,2025-05-14T21:30:39.391+09:00,null,0,0,0,0,0,0,0,null,66879.287578,0,-0.2113857,101.6864,1747225838.947632,0.0.0.0,192.0.0.2,my_iOS_device,0,1,1747225838.918107,1,0.45,0
2025-05-14T21:30:40.480+09:00,47,1747225837.974268,35.65701479262417,139.7010428478721,27.62572,-1,-1,-1,-1,30,24.22405316691533,-9999,1747225840.459988,-6.810409545898438,-4.480758666992188,-12.01367950439453,98.18890380859375,106.1575164794922,13.58635330200195,66881.69624037501,0.1286163330078125,-0.1960296630859375,-0.9520263671875,66881.667558375,-0.2525755167007446,0.1667349189519882,0.599530816078186,66881.694722375,46.81101989746094,-53.93125915527344,-129.7533111572266,66881.643864375,0.1702200049146544,-0.06309609237375423,0.02518275877529096,0.3966042399406433,-0.4675331115722656,0.1733697205781937,-0.209487721323967,0.06676021218299866,-0.1101248860359192,XArbitraryCorrectedZVertical,0.0152203843042359,-0.03035634812535671,0.08456253031829561,0.9958393879498568,-0.06303424388170242,-0.02518009766936302,-0.997693657875061,-6.577217102050781,-4.576763153076172,-12.47313690185547,-1,2,66880.6088115,unknown,2,2025-05-14T21:30:39.391+09:00,null,0,0,0,0,0,0,0,null,66879.287578,0,-0.2113857,101.6864,1747225838.947632,0.0.0.0,192.0.0.2,my_iOS_device,0,1,1747225838.918107,1,0.45,0
2025-05-14T21:30:40.515+09:00,48,1747225837.974268,35.65701479262417,139.7010428478721,27.62572,-1,-1,-1,-1,30,24.22405316691533,-9999,1747225840.499888,-7.196876525878906,-4.199321746826172,-12.09490203857422,97.64840698242188,105.6170196533203,13.58657550811768,66881.72991137501,0.1492919921875,0.0667572021484375,-1.054779052734375,66881.70122837501,0.3350823819637299,-0.7251619696617126,0.12795689702034,66881.72505037501,46.37881469726562,-53.83924865722656,-129.7070922851562,66881.703723375,0.1898552311195234,-0.07836259875626631,0.02450767153667733,0.3542048037052155,-0.7612219452857971,0.1949499994516373,0.3025020658969879,-0.1082463338971138,0.02023720741271973,XArbitraryCorrectedZVertical,0.01590157089006749,-0.03783142420871422,0.09422741732355452,0.9947046521000072,-0.07825891673564911,-0.02450521849095821,-0.9966318607330322,-6.867115020751953,-4.266078948974609,-11.97731781005859,-1,2,66880.6088115,unknown,2,2025-05-14T21:30:39.391+09:00,null,0,0,0,0,0,0,0,null,66879.287578,0,-0.2113857,101.6864,1747225838.947632,0.0.0.0,192.0.0.2,my_iOS_device,0,1,1747225838.918107,1,0.45,0
2025-05-14T21:30:40.552+09:00,49,1747225837.974268,35.65701479262417,139.7010428478721,27.62572,-1,-1,-1,-1,30,24.22405316691533,-9999,1747225840.539536,-7.38275146484375,-4.204521179199219,-11.78209686279297,95.49182891845703,103.4604415893555,13.58679580688477,66881.76358137501,-0.005126953125,0.1121826171875,-1.056228637695312,66881.73489937501,0.03876443952322006,-0.4356236457824707,1.033374667167664,66881.755377375,46.24580383300781,-53.75157165527344,-129.3281707763672,66881.703723375,0.1898552311195234,-0.07836259875626631,0.02450767153667733,0.3542048037052155,-0.7612219452857971,0.1949499994516373,0.3025020658969879,-0.1082463338971138,0.02023720741271973,XArbitraryCorrectedZVertical,0.01590157089006749,-0.03783142420871422,0.09422741732355452,0.9947046521000072,-0.07825891673564911,-0.02450521849095821,-0.9966318607330322,-6.867115020751953,-4.266078948974609,-11.97731781005859,-1,2,66880.6088115,unknown,2,2025-05-14T21:30:39.391+09:00,null,0,0,0,0,0,0,0,null,66879.287578,0,-0.2113857,101.6864,1747225838.947632,0.0.0.0,192.0.0.2,my_iOS_device,0,1,1747225838.918107,1,0.45,0
2025-05-14T21:30:40.579+09:00,50,1747225837.974268,35.65701479262417,139.7010428478721,27.62572,-1,-1,-1,-1,30,24.22405316691533,-9999,1747225840.559733,-7.799343109130859,-3.963733673095703,-11.83817291259766,94.25808715820312,102.2266998291016,13.5869083404541,66881.797251375,-0.174224853515625,-0.1275177001953125,-0.9618682861328125,66881.76856937501,0.07209523022174835,-0.5655691027641296,1.066932678222656,66881.785703375,45.72311401367188,-53.3172607421875,-129.0708465576172,66881.76358137501,0.2421377304858048,-0.1156988700630182,0.02688112913189916,0.08887667208909988,-0.5796378254890442,1.084542393684387,0.1084259301424026,0.1258920878171921,-0.07480877637863159,XArbitraryCorrectedZVertical,0.02030160009380261,-0.05576827431741354,0.1197890041261829,0.9910239534206913,-0.1153992116451263,-0.02687789127230644,-0.9929555058479309,-7.534038543701172,-4.084335327148438,-11.58547210693359,-1,2,66880.6088115,unknown,2,2025-05-14T21:30:39.391+09:00,null,0,0,0,0,0,0,0,null,66879.287578,0,-0.2113857,101.6864,1747225838.947632,0.0.0.0,192.0.0.2,my_iOS_device,0,1,1747225838.918107,1,0.45,0
2025-05-14T21:30:40.614+09:00,51,1747225837.974268,35.65701479262417,139.7010428478721,27.62572,-1,-1,-1,-1,30,24.22405316691533,-9999,1747225840.59967,-7.919704437255859,-3.708793640136719,-11.27243041992188,92.38669586181641,100.3553085327148,13.58713340759277,66881.83092237501,-0.2400970458984375,-0.1892852783203125,-0.8639678955078125,66881.80224037501,0.03484879434108734,-0.7505035400390625,0.7538221478462219,66881.816031375,45.70999145507812,-53.26057434082031,-128.8153381347656,66881.82344037501,0.2893899981559194,-0.1580475353162401,0.02265745924898814,0.00226666172966361,-0.7063541412353516,0.2897889316082001,-0.08898791670799255,-0.1928597092628479,0.09574252367019653,XArbitraryCorrectedZVertical,0.02255701772065971,-0.07648322086115611,0.142846465498562,0.9865274925940061,-0.1573499739170074,-0.02265552058815956,-0.9872829914093018,-8.0162353515625,-3.84991455078125,-11.09455871582031,-1,2,66880.6088115,unknown,2,2025-05-14T21:30:39.391+09:00,null,0,0,0,0,0,0,0,null,66879.287578,0,-0.2113857,101.6864,1747225838.947632,0.0.0.0,192.0.0.2,my_iOS_device,0,1,1747225838.918107,1,0.45,0
2025-05-14T21:30:40.649+09:00,52,1747225837.974268,35.65701479262417,139.7010428478721,27.62572,-1,-1,-1,-1,30,24.22405316691533,-9999,1747225840.639323,-8.146389007568359,-3.429866790771484,-11.05438995361328,91.81891632080078,99.78752899169922,13.58734321594238,66881.864592375,-0.2648468017578125,-0.2183685302734375,-0.85943603515625,66881.835910375,-0.240217387676239,-0.7368069291114807,0.1523898094892502,66881.846358375,45.48164367675781,-53.1651611328125,-128.841552734375,66881.82344037501,0.2893899981559194,-0.1580475353162401,0.02265745924898814,0.00226666172966361,-0.7063541412353516,0.2897889316082001,-0.08898791670799255,-0.1928597092628479,0.09574252367019653,XArbitraryCorrectedZVertical,0.02255701772065971,-0.07648322086115611,0.142846465498562,0.9865274925940061,-0.1573499739170074,-0.02265552058815956,-0.9872829914093018,-8.0162353515625,-3.84991455078125,-11.09455871582031,-1,2,66880.6088115,unknown,2,2025-05-14T21:30:39.391+09:00,null,0,0,0,0,0,0,0,null,66879.287578,0,-0.2113857,101.6864,1747225838.947632,0.0.0.0,192.0.0.2,my_iOS_device,0,1,1747225838.918107,1,0.45,0
2025-05-14T21:30:40.684+09:00,53,1747225837.974268,35.65701479262417,139.7010428478721,27.62572,-1,-1,-1,-1,30,24.22405316691533,-9999,1747225840.679153,-8.368896484375,-3.233058929443359,-11.34393310546875,91.12839508056641,99.09700775146484,13.58752155303955,66881.898263375,-0.42529296875,-0.0489959716796875,-1.050872802734375,66881.86958137501,-0.6707517504692078,0.05058541148900986,0.4046074151992798,66881.876685375,45.41767883300781,-52.77890014648438,-128.7911071777344,66881.883298375,0.3049780803154672,-0.1860797855717739,-0.01126804110825964,-0.4133187532424927,0.1406530290842056,0.2277329713106155,-0.3670059442520142,-0.2384712547063828,-0.1064671874046326,XArbitraryCorrectedZVertical,0.008567507416058591,-0.09267827773076701,0.151756728464635,0.9840260986014273,-0.1849960386753082,0.01126780267804861,-0.9826746582984924,-8.243949890136719,-3.249507904052734,-11.16912841796875,-1,2,66880.6088115,unknown,2,2025-05-14T21:30:39.391+09:00,null,0,0,0,0,0,0,0,null,66880.295403,0,-0.2113857,101.6864,1747225838.947632,0.0.0.0,192.0.0.2,my_iOS_device,0,1,1747225838.918107,1,0.45,0
2025-05-14T21:30:40.714+09:00,54,1747225837.974268,35.65701479262417,139.7010428478721,27.62572,-1,-1,-1,-1,30,24.22405316691533,-9999,1747225840.699475,-8.173900604248047,-2.960529327392578,-11.55192565917969,91.11359405517578,99.08220672607422,13.58762454986572,66881.931933375,-0.3244476318359375,-0.200531005859375,-1.014617919921875,66881.903251375,-0.498440682888031,0.4302054345607758,0.06900729984045029,66881.907012375,45.50448608398438,-52.46524047851562,-129.2282257080078,66881.883298375,0.3049780803154672,-0.1860797855717739,-0.01126804110825964,-0.4133187532424927,0.1406530290842056,0.2277329713106155,-0.3670059442520142,-0.2384712547063828,-0.1064671874046326,XArbitraryCorrectedZVertical,0.008567507416058591,-0.09267827773076701,0.151756728464635,0.9840260986014273,-0.1849960386753082,0.01126780267804861,-0.9826746582984924,-8.243949890136719,-3.249507904052734,-11.16912841796875,-1,2,66880.6088115,unknown,2,2025-05-14T21:30:39.391+09:00,null,0,0,0,0,0,0,0,null,66880.295403,0,-0.2113857,101.6864,1747225838.947632,0.0.0.0,192.0.0.2,my_iOS_device,0,1,1747225838.918107,1,0.45,0
2025-05-14T21:30:40.755+09:00,55,1747225837.974268,35.65701479262417,139.7010428478721,27.62572,-1,-1,-1,-1,30,24.22405316691533,-9999,1747225840.739053,-7.838428497314453,-2.70538330078125,-11.68136596679688,92.24109649658203,100.2097091674805,13.58783435821533,66881.96560475,0.025238037109375,0.256866455078125,-0.8997039794921875,66881.936921375,-0.602528989315033,0.8624007701873779,-0.4581009745597839,66881.937337375,45.614990234375,-52.3319091796875,-129.4232025146484,66881.943157375,0.2930647961007257,-0.1546492416479694,-0.04094420105969761,-0.6409083008766174,0.9497959017753601,-0.4563398361206055,-0.03428222239017487,-0.07785911113023758,-0.03250735998153687,XArbitraryCorrectedZVertical,-0.008914334608164569,-0.0793836964722114,0.147106146880732,0.985889770056513,-0.1539044380187988,0.04093276336789131,-0.9872375130653381,-8.061042785644531,-2.854087829589844,-11.7747802734375,-1,2,66880.6088115,unknown,2,2025-05-14T21:30:39.391+09:00,null,0,0,0,0,0,0,0,null,66880.295403,0,-0.2113857,101.6864,1747225838.947632,0.0.0.0,192.0.0.2,my_iOS_device,0,1,1747225838.918107,1,0.45,0
2025-05-14T21:30:40.791+09:00,56,1747225837.974268,35.65701479262417,139.7010428478721,27.62572,-1,-1,-1,-1,30,24.22405316691533,-9999,1747225840.778991,-7.811908721923828,-2.496532440185547,-11.80320739746094,92.39653778076172,100.3651504516602,13.58803558349609,66881.99927475001,0.070587158203125,0.1128997802734375,-0.9777984619140625,66881.97059275,-0.6276487112045288,0.3869759440422058,0.01700694672763348,66881.99798775,45.85366821289062,-51.89193725585938,-129.3653717041016,66881.943157375,0.2930647961007257,-0.1546492416479694,-0.04094420105969761,-0.6409083008766174,0.9497959017753601,-0.4563398361206055,-0.03428222239017487,-0.07785911113023758,-0.03250735998153687,XArbitraryCorrectedZVertical,-0.008914334608164569,-0.0793836964722114,0.147106146880732,0.985889770056513,-0.1539044380187988,0.04093276336789131,-0.9872375130653381,-8.061042785644531,-2.854087829589844,-11.7747802734375,-1,2,66880.6088115,unknown,2,2025-05-14T21:30:39.391+09:00,null,0,0,0,0,0,0,0,null,66880.295403,0,-0.2113857,101.6864,1747225838.947632,0.0.0.0,192.0.0.2,my_iOS_device,0,1,1747225838.918107,1,0.45,0
2025-05-14T21:30:40.819+09:00,57,1747225837.974268,35.65701479262417,139.7010428478721,27.62572,-1,-1,-1,-1,30,24.22405316691533,-9999,1747225840.798971,-7.719112396240234,-2.246738433837891,-11.8201904296875,92.14363098144531,100.1122436523438,13.58812999725342,66882.03294475,-0.1682891845703125,0.1334381103515625,-1.261306762695312,66882.00426275001,-0.1652262359857559,-0.6262513995170593,0.2566741406917572,66882.02831275,45.7730712890625,-51.8602294921875,-129.4839019775391,66882.00301575,0.2873683335229146,-0.1400937561600661,-0.07177452433233937,-0.1757508814334869,-0.623551070690155,0.2568507492542267,0.1500491350889206,0.05142542719841003,-0.04687714576721191,XArbitraryCorrectedZVertical,-0.0254073674648113,-0.07434877718065527,0.1452324718737451,0.9862730071577113,-0.1392764300107956,0.0717129111289978,-0.9876534342765808,-7.798160552978516,-2.394645690917969,-11.77629089355469,-1,2,66880.6088115,unknown,2,2025-05-14T21:30:39.391+09:00,null,0,0,0,0,0,0,0,null,66880.295403,0,-0.2113857,101.6864,1747225838.947632,0.0.0.0,192.0.0.2,my_iOS_device,0,1,1747225838.918107,1,0.45,0
2025-05-14T21:30:40.849+09:00,58,1747225837.974268,35.65701479262417,139.7010428478721,27.62572,-1,-1,-1,-1,30,24.22405316691533,-9999,1747225840.838824,-7.837329864501953,-2.336402893066406,-11.71014404296875,91.779541015625,99.74815368652344,13.58833980560303,66882.06661575001,-0.09136962890625,0.4101409912109375,-1.006240844726562,66882.03793375001,0.05948436632752419,0.1402005106210709,0.1334483325481415,66882.05863875001,45.81135559082031,-51.65037536621094,-129.5170440673828,66882.00301575,0.2873683335229146,-0.1400937561600661,-0.07177452433233937,-0.1757508814334869,-0.623551070690155,0.2568507492542267,0.1500491350889206,0.05142542719841003,-0.04687714576721191,XArbitraryCorrectedZVertical,-0.0254073674648113,-0.07434877718065527,0.1452324718737451,0.9862730071577113,-0.1392764300107956,0.0717129111289978,-0.9876534342765808,-7.798160552978516,-2.394645690917969,-11.77629089355469,-1,2,66880.6088115,unknown,2,2025-05-14T21:30:39.391+09:00,null,0,0,0,0,0,0,0,null,66880.295403,0,-0.2113857,101.6864,1747225838.947632,0.0.0.0,192.0.0.2,my_iOS_device,0,1,1747225838.918107,1,0.45,0
2025-05-14T21:30:40.884+09:00,59,1747225837.974268,35.65701479262417,139.7010428478721,27.62572,-1,-1,-1,-1,30,24.22405316691533,-9999,1747225840.878789,-7.933914184570312,-2.245639801025391,-11.55989074707031,90.50825500488281,98.47686767578125,13.58856678009033,66882.10028575,-0.2962646484375,-0.0476531982421875,-1.0543212890625,66882.07160375001,0.2585700452327728,-0.2889891862869263,0.5855481624603271,66882.08896475,45.7200927734375,-51.79206848144531,-129.1224365234375,66882.06287475,0.2992502027529613,-0.1468623978489108,-0.07200014354822437,0.1592593640089035,-0.04493365064263344,0.4193163216114044,0.05061896145343781,0.3434062004089355,-0.02208644151687622,XArbitraryCorrectedZVertical,-0.02456496526174632,-0.07784933061081588,0.1511804666594393,0.9851297268525824,-0.145955890417099,0.07193794846534729,-0.9866721034049988,-7.835666656494141,-2.176258087158203,-11.85830688476562,-1,2,66880.6088115,unknown,2,2025-05-14T21:30:39.391+09:00,null,0,0,0,0,0,0,0,null,66880.295403,0,-0.2113857,101.6864,1747225838.947632,0.0.0.0,192.0.0.2,my_iOS_device,0,1,1747225838.918107,1,0.45,0
2025-05-14T21:30:40.919+09:00,60,1747225837.974268,35.65701479262417,139.7010428478721,27.62572,-1,-1,-1,-1,30,24.22405316691533,-9999,1747225840.898698,-8.151649475097656,-2.092800140380859,-11.54750061035156,89.65510559082031,97.62371826171875,13.58868217468262,66882.13395675001,-0.4065093994140625,-0.0548248291015625,-0.8669281005859375,66882.10527375,0.4500904679298401,-0.5148162245750427,0.3984594941139221,66882.11929175,45.42520141601562,-51.68571472167969,-129.2142028808594,66882.12273275001,0.3308903133173328,-0.1730502679531501,-0.05410793025572146,0.3393044471740723,-0.5984794497489929,0.09677481651306152,-0.2397768050432205,-0.08771198987960815,0.07355785369873047,XArbitraryCorrectedZVertical,-0.01235451298451417,-0.08964434926641894,0.1663209986174962,0.9819107031080169,-0.1719358563423157,0.05408153310418129,-0.9836224913597107,-8.203601837158203,-2.130508422851562,-11.59355163574219,-1,2,66880.6088115,unknown,2,2025-05-14T21:30:39.391+09:00,null,0,0,0,0,0,0,0,null,66880.295403,0,-0.2113857,101.6864,1747225838.947632,0.0.0.0,192.0.0.2,my_iOS_device,0,1,1747225838.918107,1,0.45,0
2025-05-14T21:30:40.953+09:00,61,1747225837.974268,35.65701479262417,139.7010428478721,27.62572,-1,-1,-1,-1,30,24.22405316691533,-9999,1747225840.938727,-8.209796905517578,-2.24615478515625,-11.4248046875,89.58213806152344,97.55075073242188,13.58891201019287,66882.16762675,-0.4257659912109375,0.082977294921875,-0.912994384765625,66882.13894475,0.1656952202320099,-0.1761249601840973,-0.0958586186170578,66882.14961875,45.408935546875,-51.798828125,-129.0024719238281,66882.12273275001,0.3308903133173328,-0.1730502679531501,-0.05410793025572146,0.3393044471740723,-0.5984794497489929,0.09677481651306152,-0.2397768050432205,-0.08771198987960815,0.07355785369873047,XArbitraryCorrectedZVertical,-0.01235451298451417,-0.08964434926641894,0.1663209986174962,0.9819107031080169,-0.1719358563423157,0.05408153310418129,-0.9836224913597107,-8.203601837158203,-2.130508422851562,-11.59355163574219,-1,2,66880.6088115,unknown,2,2025-05-14T21:30:39.391+09:00,null,0,0,0,0,0,0,0,null,66880.295403,0,-0.2113857,101.6864,1747225838.947632,0.0.0.0,192.0.0.2,my_iOS_device,0,1,1747225838.918107,1,0.45,0
2025-05-14T21:30:40.993+09:00,62,1747225837.974268,35.65701479262417,139.7010428478721,27.62572,-1,-1,-1,-1,30,24.22405316691533,-9999,1747225840.978546,-8.158302307128906,-2.491950988769531,-11.16360473632812,90.47117614746094,98.43978881835938,13.58913421630859,66882.20129675,-0.1349334716796875,-0.08367919921875,-0.970550537109375,66882.17261475,-0.07602392882108688,0.0699484571814537,-0.4241326451301575,66882.17994575,45.46908569335938,-51.90223693847656,-128.7418060302734,66882.18259175001,0.3191718959126889,-0.1817984588714935,-0.04660088535041758,-0.05920544639229774,0.3485291302204132,-0.4373842775821686,-0.03088444471359253,-0.1162862479686737,-0.04132080078125,XArbitraryCorrectedZVertical,-0.008486377829808109,-0.09328335696952925,0.1602984165260632,0.9826142525900315,-0.1806024014949799,0.04658402130007744,-0.982452392578125,-8.185558319091797,-2.329147338867188,-11.14559936523438,-1,2,66880.6088115,unknown,2,2025-05-14T21:30:39.391+09:00,null,0,0,0,0,0,0,0,null,66880.295403,0,-0.2113857,101.6864,1747225838.947632,0.0.0.0,192.0.0.2,my_iOS_device,0,1,1747225838.918107,1,0.45,0
2025-05-14T21:30:41.018+09:00,63,1747225837.974268,35.65701479262417,139.7010428478721,27.62572,-1,-1,-1,-1,30,24.22405316691533,-9999,1747225840.998515,-8.129379272460938,-2.548271179199219,-11.18130493164062,90.97731018066406,98.9459228515625,13.58924579620361,66882.23496775,-0.1361083984375,0.069610595703125,-0.9957275390625,66882.20628575,0.1010326072573662,0.4458605647087097,-0.4348324239253998,66882.21027175001,45.513427734375,-52.10704040527344,-128.8459777832031,66882.18259175001,0.3191718959126889,-0.1817984588714935,-0.04660088535041758,-0.05920544639229774,0.3485291302204132,-0.4373842775821686,-0.03088444471359253,-0.1162862479686737,-0.04132080078125,XArbitraryCorrectedZVertical,-0.008486377829808109,-0.09328335696952925,0.1602984165260632,0.9826142525900315,-0.1806024014949799,0.04658402130007744,-0.982452392578125,-8.185558319091797,-2.329147338867188,-11.14559936523438,-1,2,66880.6088115,unknown,2,2025-05-14T21:30:39.391+09:00,null,0,0,0,0,0,0,0,null,66880.295403,0,-0.2113857,101.6864,1747225838.947632,0.0.0.0,192.0.0.2,my_iOS_device,0,1,1747225838.918107,1,0.45,0
2025-05-14T21:30:41.053+09:00,64,1747225837.974268,35.65701479262417,139.7010428478721,27.62572,-1,-1,-1,-1,30,24.22405316691533,-9999,1747225841.038352,-7.850505828857422,-2.682140350341797,-11.54878234863281,91.69461822509766,99.66323089599609,13.58946704864502,66882.26863775001,-0.190185546875,0.0199737548828125,-1.009201049804688,66882.23995575,0.1462679952383041,0.5890901684761047,-0.21021369099617,66882.24059475001,45.53614807128906,-52.15452575683594,-128.9376525878906,66882.24244975,0.2994114469408736,-0.1559882858900218,-0.03713121767341964,0.1433670967817307,0.6114845275878906,-0.2066200524568558,0.003165021538734436,-0.04678158462047577,-0.03178906440734863,XArbitraryCorrectedZVertical,-0.006682283104623768,-0.07979075951810426,0.1500983864612403,0.9854234873728952,-0.1552493721246719,0.0371226854622364,-0.9871775507926941,-8.076225280761719,-2.619491577148438,-11.395263671875,-1,2,66880.6088115,unknown,2,2025-05-14T21:30:39.391+09:00,null,0,0,0,0,0,0,0,null,66880.295403,0,-0.2113857,101.6864,1747225838.947632,0.0.0.0,192.0.0.2,my_iOS_device,0,1,1747225838.918107,1,0.45,0
2025-05-14T21:30:41.088+09:00,65,1747225837.974268,35.65701479262417,139.7010428478721,27.62572,-1,-1,-1,-1,30,24.22405316691533,-9999,1747225841.078312,-7.348911285400391,-2.894657135009766,-11.77027893066406,92.22927856445312,100.1978912353516,13.58968830108643,66882.30230875,-0.13385009765625,-0.060791015625,-1.0205078125,66882.27362575001,0.004857872147113085,0.8371548056602478,-0.3024261593818665,66882.30124275001,46.31195068359375,-52.61460876464844,-129.4512786865234,66882.24244975,0.2994114469408736,-0.1559882858900218,-0.03713121767341964,0.1433670967817307,0.6114845275878906,-0.2066200524568558,0.003165021538734436,-0.04678158462047577,-0.03178906440734863,XArbitraryCorrectedZVertical,-0.006682283104623768,-0.07979075951810426,0.1500983864612403,0.9854234873728952,-0.1552493721246719,0.0371226854622364,-0.9871775507926941,-8.076225280761719,-2.619491577148438,-11.395263671875,-1,2,66880.6088115,unknown,2,2025-05-14T21:30:39.391+09:00,null,0,0,0,0,0,0,0,null,66880.295403,0,-0.2113857,101.6864,1747225838.947632,0.0.0.0,192.0.0.2,my_iOS_device,0,1,1747225838.918107,1,0.45,0
2025-05-14T21:30:41.118+09:00,66,1747225837.974268,35.65701479262417,139.7010428478721,27.62572,-1,-1,-1,-1,30,24.22405316691533,-9999,1747225841.098326,-7.240203857421875,-2.926872253417969,-11.87401580810547,92.47275543212891,100.4413681030273,13.58980083465576,66882.33597875001,-0.1732330322265625,-0.057464599609375,-1.127838134765625,66882.30729675,0.1666030883789062,0.7460741996765137,-0.2508007884025574,66882.33156575001,46.58259582519531,-52.5242919921875,-129.5357208251953,66882.30230875,0.2862007631610765,-0.1067136152974744,-0.03118238994986516,0.1380726397037506,0.8170313239097595,-0.2265089899301529,-0.02131769806146622,-0.07616032660007477,-0.003913521766662598,XArbitraryCorrectedZVertical,-0.007804433740590959,-0.05500019275960111,0.1432151713113855,0.9881314474613647,-0.10645941644907,0.03117733635008335,-0.9938281178474426,-7.337593078613281,-3.028232574462891,-11.82762145996094,-1,2,66880.6088115,unknown,2,2025-05-14T21:30:39.391+09:00,null,0,0,0,0,0,0,0,null,66880.295403,0,-0.2113857,101.6864,1747225838.947632,0.0.0.0,192.0.0.2,my_iOS_device,0,1,1747225838.918107,1,0.45,0
2025-05-14T21:30:41.153+09:00,67,1747225837.974268,35.65701479262417,139.7010428478721,27.62572,-1,-1,-1,-1,30,24.22405316691533,-9999,1747225841.138073,-6.951473236083984,-3.122604370117188,-12.10485076904297,93.20066833496094,101.1692810058594,13.5900297164917,66882.36964875,-0.03948974609375,0.0138702392578125,-0.9631805419921875,66882.34096675001,0.2815568447113037,0.7533291578292847,-0.3741863667964935,66882.36188875001,46.85435485839844,-52.76309204101562,-129.7728729248047,66882.36216675,0.2679300500167102,-0.06565744918048393,-0.01445415096019289,0.3050415813922882,0.5018001198768616,-0.3369526863098145,0.01247231662273407,-0.05736144632101059,0.01609742641448975,XArbitraryCorrectedZVertical,-0.002774544779388364,-0.03349263869131838,0.133724297992287,0.9904486878275385,-0.06560343503952026,0.01445364765822887,-0.9977411031723022,-6.841697692871094,-3.198322296142578,-12.15059661865234,-1,2,66880.6088115,unknown,2,2025-05-14T21:30:39.391+09:00,null,0,0,0,0,0,0,0,null,66880.295403,0,-0.2113857,101.6864,1747225838.947632,0.0.0.0,192.0.0.2,my_iOS_device,0,1,1747225838.918107,1,0.45,0
2025-05-14T21:30:41.205+09:00,68,1747225837.974268,35.65701479262417,139.7010428478721,27.62572,-1,-1,-1,-1,30,24.22405316691533,-9999,1747225841.198049,-6.475009918212891,-3.784076690673828,-12.02378845214844,94.07801055908203,102.0466232299805,13.59037971496582,66882.40331975001,0.06109619140625,0.033721923828125,-1.021102905273438,66882.37463775001,0.3656075298786163,0.379939079284668,-0.3413850367069244,66882.39221175,47.21627807617188,-53.16215515136719,-129.6011810302734,66882.36216675,0.2679300500167102,-0.06565744918048393,-0.01445415096019289,0.3050415813922882,0.5018001198768616,-0.3369526863098145,0.01247231662273407,-0.05736144632101059,0.01609742641448975,XArbitraryCorrectedZVertical,-0.002774544779388364,-0.03349263869131838,0.133724297992287,0.9904486878275385,-0.06560343503952026,0.01445364765822887,-0.9977411031723022,-6.841697692871094,-3.198322296142578,-12.15059661865234,-1,2,66880.6088115,unknown,2,2025-05-14T21:30:39.391+09:00,null,0,0,0,0,0,0,0,null,66880.295403,0,-0.2113857,101.6864,1747225838.947632,0.0.0.0,192.0.0.2,my_iOS_device,0,1,1747225838.918107,1,0.45,0
2025-05-14T21:30:41.225+09:00,69,1747225837.974268,35.65701479262417,139.7010428478721,27.62572,-1,-1,-1,-1,30,24.22405316691533,-9999,1747225841.217996,-6.5355224609375,-3.980182647705078,-11.92127227783203,94.12715148925781,102.0957641601562,13.59049797058105,66882.43698975,-0.00506591796875,-0.00537109375,-1.097488403320312,66882.40830775001,0.7109771966934204,-0.3336637318134308,-0.1414231806993484,66882.42253375001,47.15438842773438,-53.50346374511719,-129.4061126708984,66882.42202575,0.2553117709268969,-0.06447894330104868,0.01877551228331934,0.7617496848106384,-0.3339835703372955,-0.09512351453304291,0.09361297637224197,0.02023916691541672,-0.08523118495941162,XArbitraryCorrectedZVertical,0.01340988953522993,-0.03077567945010823,0.1269375464532203,0.9913425307893008,-0.06442292034626007,-0.01877440884709358,-0.9977460503578186,-6.491355895996094,-3.915500640869141,-11.86346435546875,-1,2,66880.6088115,unknown,2,2025-05-14T21:30:39.391+09:00,null,0,0,0,0,0,0,0,null,66880.295403,0,-0.2113857,101.6864,1747225838.947632,0.0.0.0,192.0.0.2,my_iOS_device,0,1,1747225838.918107,1,0.45,0
2025-05-14T21:30:41.253+09:00,70,1747225837.974268,35.65701479262417,139.7010428478721,27.62572,-1,-1,-1,-1,30,24.22405316691533,-9999,1747225841.238035,-6.661628723144531,-4.148712158203125,-12.06337738037109,94.07908630371094,102.0476989746094,13.59061717987061,66882.47066075,-0.0892181396484375,0.015869140625,-1.035842895507812,66882.44197875001,0.6829761862754822,-0.05286561325192451,-0.00498197553679347,66882.45285675001,47.01968383789062,-53.70243835449219,-129.6361999511719,66882.42202575,0.2553117709268969,-0.06447894330104868,0.01877551228331934,0.7617496848106384,-0.3339835703372955,-0.09512351453304291,0.09361297637224197,0.02023916691541672,-0.08523118495941162,XArbitraryCorrectedZVertical,0.01340988953522993,-0.03077567945010823,0.1269375464532203,0.9913425307893008,-0.06442292034626007,-0.01877440884709358,-0.9977460503578186,-6.491355895996094,-3.915500640869141,-11.86346435546875,-1,2,66880.6088115,unknown,2,2025-05-14T21:30:39.391+09:00,null,0,0,0,0,0,0,0,null,66880.295403,0,-0.2113857,101.6864,1747225838.947632,0.0.0.0,192.0.0.2,my_iOS_device,0,1,1747225838.918107,1,0.45,0
2025-05-14T21:30:41.288+09:00,71,1747225837.974268,35.65701479262417,139.7010428478721,27.62572,-1,-1,-1,-1,30,24.22405316691533,-9999,1747225841.277784,-6.552349090576172,-4.578044891357422,-11.50319671630859,93.901123046875,101.8697357177734,13.59085750579834,66882.50433075,-0.0992279052734375,-0.080108642578125,-0.8764801025390625,66882.47564875,0.5633879899978638,0.2874727845191956,0.02447578124701977,66882.48317775001,46.85285949707031,-53.93536376953125,-129.4762115478516,66882.48188375001,0.2579336701814913,-0.06080089033483128,0.05696949289785785,0.5382881164550781,0.2615419030189514,0.0574781559407711,-0.03554181382060051,0.03694957494735718,0.0580105185508728,XArbitraryCorrectedZVertical,0.0321389172102549,-0.02646988063682898,0.127639533696857,0.9909463961826385,-0.06066485866904259,-0.05693868175148964,-0.9965328574180603,-6.741401672363281,-4.368064880371094,-11.81067657470703,-1,2,66880.6088115,unknown,2,2025-05-14T21:30:39.391+09:00,null,0,0,0,0,0,0,0,null,66880.295403,0,-0.2113857,101.6864,1747225838.947632,0.0.0.0,192.0.0.2,my_iOS_device,0,1,1747225838.918107,1,0.45,0
2025-05-14T21:30:41.323+09:00,72,1747225837.974268,35.65701479262417,139.7010428478721,27.62572,-1,-1,-1,-1,30,24.22405316691533,-9999,1747225841.317673,-6.518089294433594,-4.957279205322266,-11.71102142333984,93.78132629394531,101.7499389648438,13.59108829498291,66882.53800175,-0.1198577880859375,-0.1434173583984375,-0.9565277099609375,66882.50931875,0.4083142578601837,0.08339342474937439,0.048813346773386,66882.51349975,47.07945251464844,-54.50811767578125,-129.29931640625,66882.48188375001,0.2579336701814913,-0.06080089033483128,0.05696949289785785,0.5382881164550781,0.2615419030189514,0.0574781559407711,-0.03554181382060051,0.03694957494735718,0.0580105185508728,XArbitraryCorrectedZVertical,0.0321389172102549,-0.02646988063682898,0.127639533696857,0.9909463961826385,-0.06066485866904259,-0.05693868175148964,-0.9965328574180603,-6.741401672363281,-4.368064880371094,-11.81067657470703,-1,2,66880.6088115,unknown,2,2025-05-14T21:30:39.391+09:00,null,0,0,0,0,0,0,0,null,66880.295403,0,-0.2113857,101.6864,1747225838.947632,0.0.0.0,192.0.0.2,my_iOS_device,0,1,1747225838.918107,1,0.45,0
2025-05-14T21:30:41.357+09:00,73,1747225837.974268,35.65701479262417,139.7010428478721,27.62572,-1,-1,-1,-1,30,24.22405316691533,-9999,1747225841.3378,-6.343330383300781,-4.941951751708984,-11.85993194580078,93.89613342285156,101.86474609375,13.59119892120361,66882.57167175,-0.099700927734375,-0.208221435546875,-0.8270263671875,66882.54298975,-0.1650627255439758,0.950634777545929,-0.1017306223511696,66882.57414075,47.85127258300781,-54.13133239746094,-129.5771484375,66882.54174275001,0.2602547065924806,-0.04910520157928685,0.07614931525276764,-0.1340017467737198,0.8596504926681519,-0.09790562838315964,-0.06723720580339432,-0.08116617798805237,0.006291389465332031,XArbitraryCorrectedZVertical,0.04091557728515616,-0.01938702764927007,0.1287006740912398,0.9906494577833923,-0.04894322156906128,-0.07607574015855789,-0.9959000945091248,-6.437973022460938,-4.966251373291016,-11.85883331298828,-1,2,66880.6088115,unknown,2,2025-05-14T21:30:39.391+09:00,null,0,0,0,0,0,0,0,null,66880.295403,0,-0.2113857,101.6864,1747225838.947632,0.0.0.0,192.0.0.2,my_iOS_device,0,1,1747225838.918107,1,0.45,0
2025-05-14T21:30:41.392+09:00,74,1747225837.974268,35.65701479262417,139.7010428478721,27.62572,-1,-1,-1,-1,30,24.22405316691533,-9999,1747225841.377602,-5.469799041748047,-4.637081146240234,-12.49240112304688,94.23297882080078,102.2015914916992,13.59142303466797,66882.60534175001,0.03790283203125,-0.1087188720703125,-0.9462127685546875,66882.57665975,-1.113762736320496,2.251068592071533,-0.164431557059288,66882.60446275001,48.62469482421875,-53.89085388183594,-130.4021606445312,66882.54174275001,0.2602547065924806,-0.04910520157928685,0.07614931525276764,-0.1340017467737198,0.8596504926681519,-0.09790562838315964,-0.06723720580339432,-0.08116617798805237,0.006291389465332031,XArbitraryCorrectedZVertical,0.04091557728515616,-0.01938702764927007,0.1287006740912398,0.9906494577833923,-0.04894322156906128,-0.07607574015855789,-0.9959000945091248,-6.437973022460938,-4.966251373291016,-11.85883331298828,-1,2,66880.6088115,unknown,2,2025-05-14T21:30:39.391+09:00,null,0,0,0,0,0,0,0,null,66880.295403,0,-0.2113857,101.6864,1747225838.947632,0.0.0.0,192.0.0.2,my_iOS_device,0,1,1747225838.918107,1,0.45,0
2025-05-14T21:30:41.434+09:00,75,1747225837.974268,35.65701479262417,139.7010428478721,27.62572,-1,-1,-1,-1,30,24.22405316691533,-9999,1747225841.417521,-4.908790588378906,-4.251167297363281,-12.93949890136719,94.76371002197266,102.7323226928711,13.59161758422852,66882.63901275001,0.0317840576171875,-0.0243072509765625,-0.8572998046875,66882.61032975001,-0.7740139365196228,1.338607549667358,-0.2678572833538055,66882.63478575001,48.85496520996094,-53.62736511230469,-130.7074890136719,66882.60160075,0.2516468159094475,0.06275665347915207,0.02710834232700689,-0.9238057136535645,1.689229369163513,-0.2333443164825439,-0.02619340270757675,-0.0904792919754982,0.04661500453948975,XArbitraryCorrectedZVertical,0.009503278967248646,0.03282234680064468,0.1258402308752549,0.9914619451857218,0.06269242614507675,-0.02710502222180367,-0.997664749622345,-5.150505065917969,-4.435428619384766,-12.71835327148438,-1,2,66880.6088115,unknown,2,2025-05-14T21:30:39.391+09:00,null,0,0,0,0,0,0,0,null,66880.295403,0,-0.2113857,101.6864,1747225838.947632,0.0.0.0,192.0.0.2,my_iOS_device,0,1,1747225838.918107,1,0.45,0
2025-05-14T21:30:41.457+09:00,76,1747225837.974268,35.65701479262417,139.7010428478721,27.62572,-1,-1,-1,-1,30,24.22405316691533,-9999,1747225841.437557,-4.745834350585938,-4.054599761962891,-13.16611480712891,95.33231353759766,103.3009262084961,13.59169960021973,66882.67268275001,0.0983123779296875,-0.0201873779296875,-1.03936767578125,66882.64400075001,-0.3765217065811157,0.1001295298337936,-0.5605360269546509,66882.66510775,48.82192993164062,-53.83860778808594,-130.7570037841797,66882.66145975,0.227383431707937,0.09699174232982817,-0.005645788969085117,0.02126719057559967,-0.3287792801856995,-0.7356109619140625,-0.01456278562545776,-0.03913888335227966,-0.06939786672592163,XArbitraryCorrectedZVertical,-0.008300897309174802,0.04784383187562482,0.1131771448712076,0.9923876266060206,0.09683819860219955,0.00564575893804431,-0.9952841401100159,-4.677982330322266,-3.949851989746094,-13.07779693603516,-1,2,66880.6088115,unknown,2,2025-05-14T21:30:39.391+09:00,null,0,0,0,0,0,0,0,null,66880.295403,0,-0.2113857,101.6864,1747225838.947632,0.0.0.0,192.0.0.2,my_iOS_device,0,1,1747225838.918107,1,0.45,0
2025-05-14T21:30:41.492+09:00,77,1747225837.974268,35.65701479262417,139.7010428478721,27.62572,-1,-1,-1,-1,30,24.22405316691533,-9999,1747225841.477401,-4.892803192138672,-4.255756378173828,-13.08177947998047,97.02347564697266,104.9920883178711,13.59186458587646,66882.70635375001,0.1507415771484375,0.079742431640625,-0.78875732421875,66882.67767075001,0.04840854555368423,-0.3467233180999756,-0.7972012758255005,66882.69543075,48.67707824707031,-53.8583984375,-130.8559265136719,66882.66145975,0.227383431707937,0.09699174232982817,-0.005645788969085117,0.02126719057559967,-0.3287792801856995,-0.7356109619140625,-0.01456278562545776,-0.03913888335227966,-0.06939786672592163,XArbitraryCorrectedZVertical,-0.008300897309174802,0.04784383187562482,0.1131771448712076,0.9923876266060206,0.09683819860219955,0.00564575893804431,-0.9952841401100159,-4.677982330322266,-3.949851989746094,-13.07779693603516,-1,2,66880.6088115,unknown,2,2025-05-14T21:30:39.391+09:00,null,0,0,0,0,0,0,0,null,66880.295403,0,-0.2113857,101.6864,1747225838.947632,0.0.0.0,192.0.0.2,my_iOS_device,0,1,1747225838.918107,1,0.45,0
2025-05-14T21:30:41.522+09:00,78,1747225837.974268,35.65701479262417,139.7010428478721,27.62572,-1,-1,-1,-1,30,24.22405316691533,-9999,1747225841.517358,-5.130081176757812,-4.281581878662109,-12.94115447998047,98.27729797363281,106.2459106445312,13.5919885635376,66882.74002375,0.0911865234375,0.0338592529296875,-1.067520141601562,66882.71134175001,-0.1874529868364334,-1.05294942855835,-0.5334814786911011,66882.72575375,48.45808410644531,-53.80863952636719,-130.5278930664062,66882.72131775001,0.1876201674888175,0.05747949608438908,-0.01367919292455578,-0.06975750625133514,-1.169553637504578,-0.4979815185070038,0.07187578082084656,0.05338352918624878,0.07406079769134521,XArbitraryCorrectedZVertical,-0.00949834963668123,0.02796835955276705,0.09343600017183408,0.9951870766231236,0.05744247511029243,0.01367876585572958,-0.9982551336288452,-4.937290191650391,-4.30804443359375,-12.96300506591797,-1,2,66880.6088115,unknown,2,2025-05-14T21:30:39.391+09:00,null,0,0,0,0,0,0,0,null,66880.295403,0,-0.2113857,101.6864,1747225838.947632,0.0.0.0,192.0.0.2,my_iOS_device,0,1,1747225838.918107,1,0.45,0
2025-05-14T21:30:41.557+09:00,79,1747225837.974268,35.65701479262417,139.7010428478721,27.62572,-1,-1,-1,-1,30,24.22405316691533,-9999,1747225841.537436,-5.476219177246094,-4.420879364013672,-13.16839599609375,98.92820739746094,106.8968200683594,13.59204196929932,66882.77369375,0.0115203857421875,0.1860809326171875,-1.211593627929688,66882.74501175,0.05461797118186951,-0.8341116309165955,-0.596989631652832,66882.75607575,48.27580261230469,-53.91230773925781,-130.5423583984375,66882.72131775001,0.1876201674888175,0.05747949608438908,-0.01367919292455578,-0.06975750625133514,-1.169553637504578,-0.4979815185070038,0.07187578082084656,0.05338352918624878,0.07406079769134521,XArbitraryCorrectedZVertical,-0.00949834963668123,0.02796835955276705,0.09343600017183408,0.9951870766231236,0.05744247511029243,0.01367876585572958,-0.9982551336288452,-4.937290191650391,-4.30804443359375,-12.96300506591797,-1,2,66880.6088115,unknown,2,2025-05-14T21:30:39.391+09:00,null,0,0,0,0,0,0,0,null,66880.295403,0,-0.2113857,101.6864,1747225838.947632,0.0.0.0,192.0.0.2,my_iOS_device,0,1,1747225838.918107,1,0.45,0
2025-05-14T21:30:41.594+09:00,80,1747225837.974268,35.65701479262417,139.7010428478721,27.62572,-1,-1,-1,-1,30,24.22405316691533,-9999,1747225841.577259,-5.437088012695312,-4.655391693115234,-13.19692993164062,100.0830383300781,108.0516510009766,13.59219932556152,66882.80736475,0.1100921630859375,0.192291259765625,-1.005523681640625,66882.77868275001,-0.08931097388267517,0.3423360288143158,-0.4635601937770844,66882.78639975001,48.1968994140625,-54.22587585449219,-130.8304595947266,66882.78117675001,0.1544447652563395,0.02506860322421764,-0.01453104358489121,-0.1059601232409477,0.4034457802772522,-0.4243526458740234,-0.001091759651899338,0.1929278820753098,-0.1794511079788208,XArbitraryCorrectedZVertical,-0.008210151407156379,0.0119358344485524,0.07704675645362238,0.996922350363887,0.02506333217024803,0.01453053206205368,-0.9995802640914917,-5.393283843994141,-4.568271636962891,-13.10336303710938,-1,2,66880.6088115,unknown,2,2025-05-14T21:30:39.391+09:00,null,0,0,0,0,0,0,0,null,66880.295403,0,-0.2113857,101.6864,1747225838.947632,0.0.0.0,192.0.0.2,my_iOS_device,0,1,1747225838.918107,1,0.45,0
2025-05-14T21:30:41.633+09:00,81,1747225837.974268,35.65701479262417,139.7010428478721,27.62572,-1,-1,-1,-1,30,24.22405316691533,-9999,1747225841.617101,-5.091709136962891,-4.345878601074219,-13.01486206054688,100.0320205688477,108.0006332397461,13.59239101409912,66882.84103475,0.056488037109375,-0.0940093994140625,-1.004959106445312,66882.81235275,-0.3182701170444489,0.5406723022460938,0.08370768278837204,66882.81672075001,48.53041076660156,-53.85708618164062,-130.6379241943359,66882.78117675001,0.1544447652563395,0.02506860322421764,-0.01453104358489121,-0.1059601232409477,0.4034457802772522,-0.4243526458740234,-0.001091759651899338,0.1929278820753098,-0.1794511079788208,XArbitraryCorrectedZVertical,-0.008210151407156379,0.0119358344485524,0.07704675645362238,0.996922350363887,0.02506333217024803,0.01453053206205368,-0.9995802640914917,-5.393283843994141,-4.568271636962891,-13.10336303710938,-1,2,66880.6088115,unknown,2,2025-05-14T21:30:39.391+09:00,null,0,0,0,0,0,0,0,null,66880.295403,0,-0.2113857,101.6864,1747225838.947632,0.0.0.0,192.0.0.2,my_iOS_device,0,1,1747225838.918107,1,0.45,0
2025-05-14T21:30:41.657+09:00,82,1747225837.974268,35.65701479262417,139.7010428478721,27.62572,-1,-1,-1,-1,30,24.22405316691533,-9999,1747225841.637134,-5.019016265869141,-4.251632690429688,-13.12669372558594,100.1325225830078,108.1011352539062,13.59248447418213,66882.87470475001,0.0028533935546875,0.0121917724609375,-1.059341430664062,66882.84602275,-0.01836808770895004,0.2595125436782837,-0.1669639497995377,66882.84704175001,48.66207885742188,-53.786865234375,-130.7829132080078,66882.84103475,0.1518501139035044,0.0528526181287813,-0.02849794201719083,-0.08626025915145874,0.2397313266992569,-0.09455621987581253,-0.005122832953929901,-0.1328947991132736,-0.02185189723968506,XArbitraryCorrectedZVertical,-0.01620653347138012,0.02526403331379657,0.07544253944011743,0.9966983543549164,0.05280656367540359,0.0284940842539072,-0.9981981515884399,-5.0936279296875,-4.25311279296875,-12.97607421875,-1,2,66880.6088115,unknown,2,2025-05-14T21:30:39.391+09:00,null,0,0,0,0,0,0,0,null,66880.295403,0,-0.2113857,101.6864,1747225838.947632,0.0.0.0,192.0.0.2,my_iOS_device,0,1,1747225838.918107,1,0.45,0
2025-05-14T21:30:41.692+09:00,83,1747225837.974268,35.65701479262417,139.7010428478721,27.62572,-1,-1,-1,-1,30,24.22405316691533,-9999,1747225841.676831,-4.735019683837891,-4.43182373046875,-13.28522491455078,100.6457824707031,108.6143951416016,13.59268093109131,66882.90837575,0.0988616943359375,0.0509796142578125,-1.055374145507812,66882.87969375,-0.04026832804083824,0.402536541223526,-0.1848582625389099,66882.90768175,49.05130004882812,-53.79783630371094,-131.0782318115234,66882.90089375,0.1405542239596484,0.07430326998189021,-0.03010040432979565,-0.08819101750850677,0.4084156155586243,-0.07381351292133331,0.03390724956989288,0.04345142468810081,-0.04059499502182007,XArbitraryCorrectedZVertical,-0.01760998953746624,0.03599116024350764,0.06960526087138942,0.9967696835738117,0.07420129328966141,0.03009585849940777,-0.9967890381813049,-4.887252807617188,-4.363033294677734,-13.29856109619141,-1,2,66880.6088115,unknown,2,2025-05-14T21:30:39.391+09:00,null,0,0,0,0,0,0,0,null,66880.295403,0,-0.2113857,101.6864,1747225838.947632,0.0.0.0,192.0.0.2,my_iOS_device,0,1,1747225838.918107,1,0.45,0
2025-05-14T21:30:41.727+09:00,84,1747225837.974268,35.65701479262417,139.7010428478721,27.62572,-1,-1,-1,-1,30,24.22405316691533,-9999,1747225841.716816,-4.535007476806641,-4.372528076171875,-13.59278106689453,100.8835601806641,108.8521728515625,13.59288215637207,66882.94204575001,0.1402740478515625,-0.0324249267578125,-1.017227172851562,66882.91336375001,0.01395309995859861,0.3728609383106232,-0.1116722002625465,66882.93800275,49.27432250976562,-54.05339050292969,-131.0186309814453,66882.90089375,0.1405542239596484,0.07430326998189021,-0.03010040432979565,-0.08819101750850677,0.4084156155586243,-0.07381351292133331,0.03390724956989288,0.04345142468810081,-0.04059499502182007,XArbitraryCorrectedZVertical,-0.01760998953746624,0.03599116024350764,0.06960526087138942,0.9967696835738117,0.07420129328966141,0.03009585849940777,-0.9967890381813049,-4.887252807617188,-4.363033294677734,-13.29856109619141,-1,2,66880.6088115,unknown,2,2025-05-14T21:30:39.391+09:00,null,0,0,0,0,0,0,0,null,66880.295403,0,-0.2113857,101.6864,1747225838.947632,0.0.0.0,192.0.0.2,my_iOS_device,0,1,1747225838.918107,1,0.45,0
2025-05-14T21:30:41.762+09:00,85,1747225837.974268,35.65701479262417,139.7010428478721,27.62572,-1,-1,-1,-1,30,24.22405316691533,-9999,1747225841.756907,-4.411708831787109,-4.442756652832031,-13.58861541748047,101.1692047119141,109.1378173828125,13.59309005737305,66882.97571625,0.1185760498046875,0.01776123046875,-1.0064697265625,66882.94703425,0.1348001658916473,0.2083595991134644,-0.1257041245698929,66882.96832525001,49.26174926757812,-54.00190734863281,-131.2604827880859,66882.96075125001,0.1331499312752186,0.09104627054318284,-0.02596622661762682,0.156664714217186,0.1479318141937256,-0.09186651557683945,0.04134280234575272,-0.005028329789638519,-0.002936422824859619,XArbitraryCorrectedZVertical,-0.01596772780833275,0.04453997825600928,0.06586176839325862,0.9967063764360015,0.09088988602161407,0.0259633082896471,-0.9955224394798279,-4.467384338378906,-4.389411926269531,-13.39337921142578,-1,2,66880.6088115,unknown,2,2025-05-14T21:30:39.391+09:00,null,0,0,0,0,0,0,0,null,66880.295403,0,-0.2113857,101.6864,1747225838.947632,0.0.0.0,192.0.0.2,my_iOS_device,0,1,1747225838.918107,1,0.45,0
2025-05-14T21:30:41.794+09:00,86,1747225837.974268,35.65701479262417,139.7010428478721,27.62572,-1,-1,-1,-1,30,24.22405316691533,-9999,1747225841.77681,-4.387603759765625,-4.432132720947266,-13.38362884521484,101.2632827758789,109.2318954467773,13.59319496154785,66883.00938625001,0.1018218994140625,0.022613525390625,-1.029220581054688,66882.98070425,0.1644746959209442,0.2109394073486328,-0.07093489170074463,66882.99864825001,49.27798461914062,-54.12786865234375,-130.9911651611328,66882.96075125001,0.1331499312752186,0.09104627054318284,-0.02596622661762682,0.156664714217186,0.1479318141937256,-0.09186651557683945,0.04134280234575272,-0.005028329789638519,-0.002936422824859619,XArbitraryCorrectedZVertical,-0.01596772780833275,0.04453997825600928,0.06586176839325862,0.9967063764360015,0.09088988602161407,0.0259633082896471,-0.9955224394798279,-4.467384338378906,-4.389411926269531,-13.39337921142578,-1,2,66880.6088115,unknown,2,2025-05-14T21:30:39.391+09:00,null,0,0,0,0,0,0,0,null,66880.295403,0,-0.2113857,101.6864,1747225838.947632,0.0.0.0,192.0.0.2,my_iOS_device,0,1,1747225838.918107,1,0.45,0
2025-05-14T21:30:41.835+09:00,87,1747225837.974268,35.65701479262417,139.7010428478721,27.62572,-1,-1,-1,-1,30,24.22405316691533,-9999,1747225841.816509,-4.175045013427734,-4.581428527832031,-13.41641998291016,101.4513320922852,109.4199447631836,13.59340572357178,66883.04305625,0.096221923828125,0.0200347900390625,-0.993316650390625,66883.01437425001,0.1517405211925507,0.4236005246639252,-0.07645189762115479,66883.02896925001,49.55006408691406,-54.12367248535156,-131.0502014160156,66883.02061025001,0.1284615225705683,0.1074874296754413,-0.01700545007975037,0.1676973104476929,0.4300497472286224,-0.0923578217625618,-0.02030520141124725,-0.001700147986412048,-0.02355408668518066,XArbitraryCorrectedZVertical,-0.01192067827260301,0.05306016698231503,0.06363580698716655,0.9964904268353415,0.1072650626301765,0.01700462959706783,-0.9940850138664246,-4.360542297363281,-4.570571899414062,-13.31687164306641,-1,2,66880.6088115,unknown,2,2025-05-14T21:30:39.391+09:00,null,0,0,0,0,0,0,0,null,66880.295403,0,-0.2113857,101.6864,1747225838.947632,0.0.0.0,192.0.0.2,my_iOS_device,0,1,1747225838.918107,1,0.45,0
2025-05-14T21:30:41.872+09:00,88,1747225837.974268,35.65701479262417,139.7010428478721,27.62572,-1,-1,-1,-1,30,24.22405316691533,-9999,1747225841.856601,-3.870410919189453,-4.785282135009766,-13.26785278320312,101.8376159667969,109.8062286376953,13.59361934661865,66883.07672725001,0.098419189453125,-0.0024871826171875,-0.9804229736328125,66883.04804525001,0.2032817453145981,0.4088673889636993,-0.139888659119606,66883.05928925,49.79023742675781,-54.30108642578125,-130.6583099365234,66883.02061025001,0.1284615225705683,0.1074874296754413,-0.01700545007975037,0.1676973104476929,0.4300497472286224,-0.0923578217625618,-0.02030520141124725,-0.001700147986412048,-0.02355408668518066,XArbitraryCorrectedZVertical,-0.01192067827260301,0.05306016698231503,0.06363580698716655,0.9964904268353415,0.1072650626301765,0.01700462959706783,-0.9940850138664246,-4.360542297363281,-4.570571899414062,-13.31687164306641,-1,2,66880.6088115,unknown,2,2025-05-14T21:30:39.391+09:00,null,0,0,0,0,0,0,0,null,66880.295403,0,-0.2113857,101.6864,1747225838.947632,0.0.0.0,192.0.0.2,my_iOS_device,0,1,1747225838.918107,1,0.45,0
2025-05-14T21:30:41.896+09:00,89,1747225837.974268,35.65701479262417,139.7010428478721,27.62572,-1,-1,-1,-1,30,24.22405316691533,-9999,1747225841.876479,-3.807029724121094,-4.961769104003906,-13.06619262695312,102.086669921875,110.0552825927734,13.59372425079346,66883.11039725,0.151763916015625,-0.0148162841796875,-0.948516845703125,66883.08171525001,0.1960267573595047,0.4180686175823212,-0.1999900788068771,66883.08961125,49.8736572265625,-54.49725341796875,-130.5977935791016,66883.08046825,0.1183430425440644,0.1325080131869464,-0.00619759943272008,0.1953543573617935,0.4120307266712189,-0.1957242041826248,-0.02205637097358704,-0.01201124209910631,0.02083194255828857,XArbitraryCorrectedZVertical,-0.007001762429410625,0.06590650642238662,0.05880216764570625,0.9960671172002393,0.1321180462837219,0.006197559647262096,-0.9912146329879761,-3.90826416015625,-4.95013427734375,-13.21340942382812,-1,2,66880.6088115,unknown,2,2025-05-14T21:30:39.391+09:00,null,0,0,0,0,0,0,0,null,66880.295403,0,-0.2113857,101.6864,1747225838.947632,0.0.0.0,192.0.0.2,my_iOS_device,0,1,1747225838.918107,1,0.45,0
2025-05-14T21:30:41.926+09:00,90,1747225837.974268,35.65701479262417,139.7010428478721,27.62572,-1,-1,-1,-1,30,24.22405316691533,-9999,1747225841.916307,-3.639865875244141,-5.112480163574219,-13.52032470703125,102.5337753295898,110.5023880004883,13.59393119812012,66883.14406825001,0.1770477294921875,0.0027618408203125,-0.9804534912109375,66883.11538625001,0.1735281199216843,0.2430776357650757,-0.1636435240507126,66883.11993025,50.10629272460938,-54.92622375488281,-131.1972351074219,66883.08046825,0.1183430425440644,0.1325080131869464,-0.00619759943272008,0.1953543573617935,0.4120307266712189,-0.1957242041826248,-0.02205637097358704,-0.01201124209910631,0.02083194255828857,XArbitraryCorrectedZVertical,-0.007001762429410625,0.06590650642238662,0.05880216764570625,0.9960671172002393,0.1321180462837219,0.006197559647262096,-0.9912146329879761,-3.90826416015625,-4.95013427734375,-13.21340942382812,-1,2,66880.6088115,unknown,2,2025-05-14T21:30:39.391+09:00,null,0,0,0,0,0,0,0,null,66880.295403,0,-0.2113857,101.6864,1747225838.947632,0.0.0.0,192.0.0.2,my_iOS_device,0,1,1747225838.918107,1,0.45,0
2025-05-14T21:30:41.961+09:00,91,1747225837.974268,35.65701479262417,139.7010428478721,27.62572,-1,-1,-1,-1,30,24.22405316691533,-9999,1747225841.956196,-3.305084228515625,-5.415626525878906,-13.36551666259766,102.9184036254883,110.8870162963867,13.5941333770752,66883.17773825,0.19171142578125,-0.019561767578125,-1.021469116210938,66883.14905625001,0.2431942820549011,0.09384740144014359,-0.1388154029846191,66883.15025025001,50.23211669921875,-54.78466796875,-131.2076110839844,66883.14032725,0.1067547819914926,0.1481802032036951,0.003602218966219354,0.2208563983440399,0.0798368975520134,-0.125802606344223,0.02902871370315552,0.008286574855446815,0.01112973690032959,XArbitraryCorrectedZVertical,-0.002155626665462932,0.0740126128186568,0.05333872195555824,0.9958276276747575,0.1476375609636307,-0.003602211130782962,-0.9890349507331848,-3.564140319824219,-5.094638824462891,-13.52521514892578,-1,2,66880.6088115,unknown,2,2025-05-14T21:30:39.391+09:00,null,0,0,0,0,0,0,0,null,66880.295403,0,-0.2113857,101.6864,1747225838.947632,0.0.0.0,192.0.0.2,my_iOS_device,0,1,1747225838.918107,1,0.45,0
2025-05-14T21:30:41.996+09:00,92,1747225837.974268,35.65701479262417,139.7010428478721,27.62572,-1,-1,-1,-1,30,24.22405316691533,-9999,1747225841.97629,-3.361244201660156,-5.439414978027344,-13.40213775634766,103.1206283569336,111.089241027832,13.59423542022705,66883.21140825,0.202789306640625,-0.031494140625,-0.960052490234375,66883.18272625,0.2499597668647766,0.197457417845726,-0.1478110253810883,66883.21089125,50.41552734375,-55.26408386230469,-130.9850311279297,66883.20018525001,0.09632958360435161,0.1577523232063331,0.01671208456940547,0.1741483211517334,0.3122673630714417,-0.1487172245979309,0.05235001444816589,-0.02561666071414948,0.01741325855255127,XArbitraryCorrectedZVertical,0.004526789041959341,0.07910132869430969,0.04865244118657903,0.9956683514923755,0.157076895236969,-0.01671130582690239,-0.9874449968338013,-3.318153381347656,-5.565280914306641,-13.46042633056641,-1,2,66880.6088115,unknown,2,2025-05-14T21:30:39.391+09:00,null,0,0,0,0,0,0,0,null,66880.295403,0,-0.2113857,101.6864,1747225838.947632,0.0.0.0,192.0.0.2,my_iOS_device,0,1,1747225838.918107,1,0.45,0
2025-05-14T21:30:42.034+09:00,93,1747225841.985687,35.65701705852797,139.701042983209,27.72432,-1,-1,-1,-1,30,29.57910306897149,-9999,1747225842.016003,-3.170608520507812,-5.602821350097656,-13.43921661376953,103.5311889648438,111.4998016357422,13.59444141387939,66883.24507925,0.1954193115234375,-0.0260009765625,-0.9518585205078125,66883.21639725,0.2049020081758499,0.269612580537796,-0.1665242612361908,66883.24121125,50.53199768066406,-55.39889526367188,-130.8027954101562,66883.20018525001,0.09632958360435161,0.1577523232063331,0.01671208456940547,0.1741483211517334,0.3122673630714417,-0.1487172245979309,0.05235001444816589,-0.02561666071414948,0.01741325855255127,XArbitraryCorrectedZVertical,0.004526789041959341,0.07910132869430969,0.04865244118657903,0.9956683514923755,0.157076895236969,-0.01671130582690239,-0.9874449968338013,-3.318153381347656,-5.565280914306641,-13.46042633056641,-1,2,66880.6088115,unknown,2,2025-05-14T21:30:39.391+09:00,null,0,0,0,0,0,0,0,null,66880.295403,0,-0.2113857,101.6864,1747225838.947632,0.0.0.0,192.0.0.2,my_iOS_device,0,1,1747225838.918107,1,0.45,0
2025-05-14T21:30:42.071+09:00,94,1747225841.985687,35.65701705852797,139.701042983209,27.72432,-1,-1,-1,-1,30,29.57910306897149,-9999,1747225842.056012,-3.14520263671875,-5.849925994873047,-13.53402709960938,103.6616287231445,111.630241394043,13.59464168548584,66883.27874925001,0.174957275390625,-0.042877197265625,-1.023300170898438,66883.25006725,0.1795007884502411,-0.03086257539689541,-0.01880884170532227,66883.27153125001,50.46885681152344,-55.35934448242188,-131.2147521972656,66883.26004425,0.0888613531541627,0.165585630947868,0.02903919325522844,0.1318551003932953,-0.09105561673641205,0.001048874109983444,0.02402129769325256,-0.01901490241289139,0.01427227258682251,XArbitraryCorrectedZVertical,0.01078232977053852,0.08325060668873316,0.04545876792479707,0.9954329226443746,0.164760485291481,-0.02903511188924313,-0.985906183719635,-3.053531646728516,-5.910194396972656,-13.29118347167969,-1,2,66880.6088115,unknown,2,2025-05-14T21:30:39.391+09:00,null,0,0,0,0,0,0,0,null,66880.295403,0,-0.2113857,101.6864,1747225838.947632,0.0.0.0,192.0.0.2,my_iOS_device,0,1,1747225838.918107,1,0.45,0
2025-05-14T21:30:42.096+09:00,95,1747225841.985687,35.65701705852797,139.701042983209,27.72432,-1,-1,-1,-1,30,29.57910306897149,-9999,1747225842.076091,-3.158115386962891,-5.984565734863281,-13.31341552734375,103.733268737793,111.7018814086914,13.59473991394043,66883.31242025,0.1843109130859375,-0.0006866455078125,-0.976104736328125,66883.28373725001,0.328751802444458,-0.1749675571918488,-0.03125911951065063,66883.30185125,50.31599426269531,-55.5538330078125,-130.785400390625,66883.26004425,0.0888613531541627,0.165585630947868,0.02903919325522844,0.1318551003932953,-0.09105561673641205,0.001048874109983444,0.02402129769325256,-0.01901490241289139,0.01427227258682251,XArbitraryCorrectedZVertical,0.01078232977053852,0.08325060668873316,0.04545876792479707,0.9954329226443746,0.164760485291481,-0.02903511188924313,-0.985906183719635,-3.053531646728516,-5.910194396972656,-13.29118347167969,-1,2,66880.6088115,unknown,2,2025-05-14T21:30:39.391+09:00,null,0,0,0,0,0,0,0,null,66880.295403,0,-0.2113857,101.6864,1747225838.947632,0.0.0.0,192.0.0.2,my_iOS_device,0,1,1747225838.918107,1,0.45,0
2025-05-14T21:30:42.181+09:00,96,1747225841.985687,35.65701705852797,139.701042983209,27.72432,-1,-1,-1,-1,30,29.57910306897149,-9999,1747225842.175653,-3.314544677734375,-6.420692443847656,-13.28543090820312,103.8846435546875,111.8532562255859,13.59524154663086,66883.34609025001,0.132659912109375,-0.0970001220703125,-1.007644653320312,66883.31740825,0.3694169223308563,-0.3052374124526978,0.00546347489580512,66883.33217125,50.34342956542969,-55.50247192382812,-130.9265747070312,66883.31990225,0.0848271407277241,0.1525026961173991,0.04828587129901177,0.3484342396259308,-0.3031019270420074,0.01608655601739883,0.04426398873329163,0.04333842918276787,0.02758622169494629,XArbitraryCorrectedZVertical,0.02081974812899243,0.07710739636635126,0.04410264363371404,0.9958292937414632,0.1517352014780045,-0.04826711118221283,-0.9872419834136963,-3.328861236572266,-6.075183868408203,-13.32560729980469,-1,2,66880.6088115,unknown,2,2025-05-14T21:30:39.391+09:00,null,0,0,0,0,0,0,0,null,66880.295403,0,-0.2113857,101.6864,1747225838.947632,0.0.0.0,192.0.0.2,my_iOS_device,0,1,1747225838.918107,1,0.45,0
2025-05-14T21:30:42.182+09:00,97,1747225841.985687,35.65701705852797,139.701042983209,27.72432,-1,-1,-1,-1,30,29.57910306897149,-9999,1747225842.175653,-3.314544677734375,-6.420692443847656,-13.28543090820312,103.8846435546875,111.8532562255859,13.59524154663086,66883.37976025,0.170928955078125,-0.0294036865234375,-1.0128173828125,66883.35107825001,0.1920205652713776,-0.1375586539506912,-0.0192922055721283,66883.36249225,50.13740539550781,-55.77320861816406,-130.6433563232422,66883.31990225,0.0848271407277241,0.1525026961173991,0.04828587129901177,0.3484342396259308,-0.3031019270420074,0.01608655601739883,0.04426398873329163,0.04333842918276787,0.02758622169494629,XArbitraryCorrectedZVertical,0.02081974812899243,0.07710739636635126,0.04410264363371404,0.9958292937414632,0.1517352014780045,-0.04826711118221283,-0.9872419834136963,-3.328861236572266,-6.075183868408203,-13.32560729980469,-1,2,66880.6088115,unknown,2,2025-05-14T21:30:39.391+09:00,null,0,0,0,0,0,0,0,null,66880.295403,0,-0.2113857,101.6864,1747225838.947632,0.0.0.0,192.0.0.2,my_iOS_device,0,1,1747225838.918107,1,0.45,0
2025-05-14T21:30:42.195+09:00,98,1747225841.985687,35.65701705852797,139.701042983209,27.72432,-1,-1,-1,-1,30,29.57910306897149,-9999,1747225842.175653,-3.314544677734375,-6.420692443847656,-13.28543090820312,103.8846435546875,111.8532562255859,13.59524154663086,66883.41343125001,0.172454833984375,-0.074188232421875,-0.957244873046875,66883.38474925001,0.1763486713171005,0.05279237404465675,0.07990361750125885,66883.39281025001,50.30741882324219,-55.99461364746094,-130.8768463134766,66883.37976025,0.08418666996449022,0.1429074354724785,0.06129624220082331,0.165230005979538,-0.01343429088592529,0.07843038439750671,0.03130790591239929,0.02742903679609299,-0.02708268165588379,XArbitraryCorrectedZVertical,0.02753518576970349,0.07258239713322484,0.04413959071649971,0.9960047347812274,0.1421540379524231,-0.06125786527991295,-0.9879472255706787,-3.248226165771484,-6.326545715332031,-13.26863098144531,-1,2,66880.6088115,unknown,2,2025-05-14T21:30:39.391+09:00,null,0,0,0,0,0,0,0,null,66880.295403,0,-0.2113857,101.6864,1747225838.947632,0.0.0.0,192.0.0.2,my_iOS_device,0,1,1747225838.918107,1,0.45,0
2025-05-14T21:30:42.230+09:00,99,1747225841.985687,35.65701705852797,139.701042983209,27.72432,-1,-1,-1,-1,30,29.57910306897149,-9999,1747225842.215602,-3.363754272460938,-6.383682250976562,-13.29939270019531,103.7347106933594,111.7033233642578,13.59544563293457,66883.44710125,0.1541595458984375,-0.06256103515625,-0.947174072265625,66883.41841925001,0.1346464902162552,0.01953295432031155,0.08852267265319824,66883.42313025,50.24214172363281,-55.92909240722656,-130.9333953857422,66883.43961925,0.08799452378105406,0.1453296737617407,0.07110276088487302,0.1401042640209198,-0.03409061208367348,0.07887919992208481,0.007936850190162659,0.006406538188457489,0.04510939121246338,XArbitraryCorrectedZVertical,0.0322245932931841,0.07404401546657878,0.0464172988219456,0.9956528829180402,0.1444527208805084,-0.07104286551475525,-0.9869581460952759,-3.396820068359375,-6.391323089599609,-13.30506896972656,-1,2,66880.6088115,unknown,2,2025-05-14T21:30:39.391+09:00,null,0,0,0,0,0,0,0,null,66880.677496,0,-0.2061005,101.6864,1747225838.947632,0.0.0.0,192.0.0.2,my_iOS_device,0,1,1747225838.918107,1,0.45,0
2025-05-14T21:30:42.267+09:00,100,1747225841.985687,35.65701705852797,139.701042983209,27.72432,-1,-1,-1,-1,30,29.57910306897149,-9999,1747225842.255431,-3.387962341308594,-6.428211212158203,-13.14175415039062,103.5652847290039,111.5338973999023,13.59564208984375,66883.48077225,0.157012939453125,-0.057708740234375,-0.972015380859375,66883.45208925,0.1552314013242722,-0.05610587820410728,0.08401394635438919,66883.45345025,50.07125854492188,-55.93704223632812,-130.6613616943359,66883.43961925,0.08799452378105406,0.1453296737617407,0.07110276088487302,0.1401042640209198,-0.03409061208367348,0.07887919992208481,0.007936850190162659,0.006406538188457489,0.04510939121246338,XArbitraryCorrectedZVertical,0.0322245932931841,0.07404401546657878,0.0464172988219456,0.9956528829180402,0.1444527208805084,-0.07104286551475525,-0.9869581460952759,-3.396820068359375,-6.391323089599609,-13.30506896972656,-1,2,66880.6088115,unknown,2,2025-05-14T21:30:39.391+09:00,null,0,0,0,0,0,0,0,null,66880.677496,0,-0.2061005,101.6864,1747225838.947632,0.0.0.0,192.0.0.2,my_iOS_device,0,1,1747225838.918107,1,0.45,0
2025-05-14T21:30:42.307+09:00,101,1747225841.985687,35.65701705852797,139.701042983209,27.72432,-1,-1,-1,-1,30,29.57910306897149,-9999,1747225842.295577,-3.348983764648438,-6.382595062255859,-13.36428833007812,103.2344207763672,111.2030334472656,13.59583377838135,66883.51444225,0.127410888671875,-0.05877685546875,-0.955108642578125,66883.48576025,-0.07941067218780518,0.1639130413532257,0.1452402770519257,66883.51409025,50.22685241699219,-55.89982604980469,-130.9547576904297,66883.49947725001,0.09472033473365592,0.1479821892230585,0.07429905707463262,-0.1094170808792114,0.1805261075496674,0.1272733360528946,-0.0233786553144455,0.020046666264534,0.01649326086044312,XArbitraryCorrectedZVertical,0.03350051906411623,0.07554329329986152,0.04992286934656339,0.9953284667758449,0.1470358967781067,-0.07423071563243866,-0.9863418340682983,-3.357715606689453,-6.484264373779297,-13.28099060058594,-1,2,66880.6088115,unknown,2,2025-05-14T21:30:39.391+09:00,null,0,0,0,0,0,0,0,null,66880.677496,0,-0.2061005,101.6864,1747225838.947632,0.0.0.0,192.0.0.2,my_iOS_device,0,1,1747225838.918107,1,0.45,0
2025-05-14T21:30:42.330+09:00,102,1747225841.985687,35.65701705852797,139.701042983209,27.72432,-1,-1,-1,-1,30,29.57910306897149,-9999,1747225842.315465,-3.463382720947266,-6.422573089599609,-13.46388244628906,103.0582656860352,111.0268783569336,13.59592723846436,66883.54811225001,0.1288604736328125,-0.05511474609375,-0.962738037109375,66883.51943025,-0.06403037905693054,0.07216793298721313,0.1445473283529282,66883.54441025,50.18901062011719,-56.28561401367188,-130.6799163818359,66883.49947725001,0.09472033473365592,0.1479821892230585,0.07429905707463262,-0.1094170808792114,0.1805261075496674,0.1272733360528946,-0.0233786553144455,0.020046666264534,0.01649326086044312,XArbitraryCorrectedZVertical,0.03350051906411623,0.07554329329986152,0.04992286934656339,0.9953284667758449,0.1470358967781067,-0.07423071563243866,-0.9863418340682983,-3.357715606689453,-6.484264373779297,-13.28099060058594,-1,2,66880.6088115,unknown,2,2025-05-14T21:30:39.391+09:00,null,0,0,0,0,0,0,0,null,66880.677496,0,-0.2061005,101.6864,1747225838.947632,0.0.0.0,192.0.0.2,my_iOS_device,0,1,1747225838.918107,1,0.45,0
2025-05-14T21:30:42.365+09:00,103,1747225841.985687,35.65701705852797,139.701042983209,27.72432,-1,-1,-1,-1,30,29.57910306897149,-9999,1747225842.3555,-3.526496887207031,-6.352199554443359,-13.22991943359375,102.713493347168,110.6821060180664,13.59610843658447,66883.58178325,0.1385650634765625,-0.0780181884765625,-0.9635009765625,66883.55310025001,-0.0213223323225975,0.03087802045047283,0.1411720365285873,66883.57473125,49.92269897460938,-55.81361389160156,-130.6792144775391,66883.55933625001,0.10378871401342,0.1503009350506486,0.07288791688503168,-0.04380263015627861,0.07443955540657043,0.1390941590070724,-0.01821930706501007,0.01415325701236725,-0.007978737354278564,XArbitraryCorrectedZVertical,0.03239225981767106,0.07681352582792166,0.05442223313315053,0.9950319796891069,0.149338111281395,-0.07282339781522751,-0.9861008524894714,-3.579246520996094,-6.390281677246094,-13.343017578125,-1,2,66880.6088115,unknown,2,2025-05-14T21:30:39.391+09:00,null,0,0,0,0,0,0,0,null,66880.677496,0,-0.2061005,101.6864,1747225838.947632,0.0.0.0,192.0.0.2,my_iOS_device,0,1,1747225838.918107,1,0.45,0
2025-05-14T21:30:42.400+09:00,104,1747225841.985687,35.65701705852797,139.701042983209,27.72432,-1,-1,-1,-1,30,29.57910306897149,-9999,1747225842.395348,-3.565513610839844,-6.098445892333984,-13.12324523925781,102.3333740234375,110.3019866943359,13.59628391265869,66883.61545325001,0.1297760009765625,-0.0446014404296875,-0.9723052978515625,66883.58677125,-0.1720708310604095,0.1320624351501465,0.1367583870887756,66883.60505125001,50.11187744140625,-55.57807922363281,-130.6146697998047,66883.55933625001,0.10378871401342,0.1503009350506486,0.07288791688503168,-0.04380263015627861,0.07443955540657043,0.1390941590070724,-0.01821930706501007,0.01415325701236725,-0.007978737354278564,XArbitraryCorrectedZVertical,0.03239225981767106,0.07681352582792166,0.05442223313315053,0.9950319796891069,0.149338111281395,-0.07282339781522751,-0.9861008524894714,-3.579246520996094,-6.390281677246094,-13.343017578125,-1,2,66880.6088115,unknown,2,2025-05-14T21:30:39.391+09:00,null,0,0,0,0,0,0,0,null,66880.677496,0,-0.2061005,101.6864,1747225838.947632,0.0.0.0,192.0.0.2,my_iOS_device,0,1,1747225838.918107,1,0.45,0
2025-05-14T21:30:42.435+09:00,105,1747225841.985687,35.65701705852797,139.701042983209,27.72432,-1,-1,-1,-1,30,29.57910306897149,-9999,1747225842.41523,-3.472576141357422,-6.1568603515625,-13.37033081054688,102.1367034912109,110.1053161621094,13.59637069702148,66883.64912325,0.1687164306640625,-0.0496826171875,-0.943389892578125,66883.62044125001,-0.06619206815958023,-0.02069356106221676,0.1577344983816147,66883.63537225001,50.19001770019531,-55.81358337402344,-130.78173828125,66883.61919425,0.1135485500674268,0.1546835546004701,0.06666597370010782,-0.07057035714387894,-0.01988576166331768,0.1609059870243073,-0.01996661722660065,0.03001067787408829,0.01041692495346069,XArbitraryCorrectedZVertical,0.02879179557675139,0.07898278642137763,0.05911355993314606,0.9947051754009162,0.1537252068519592,-0.06661660224199295,-0.9858655333518982,-3.541133880615234,-6.03692626953125,-13.25198364257812,-1,2,66880.6088115,unknown,2,2025-05-14T21:30:39.391+09:00,null,0,0,0,0,0,0,0,null,66880.677496,0,-0.2061005,101.6864,1747225838.947632,0.0.0.0,192.0.0.2,my_iOS_device,0,1,1747225838.918107,1,0.45,0
2025-05-14T21:30:42.472+09:00,106,1747225841.985687,35.65701705852797,139.701042983209,27.72432,-1,-1,-1,-1,30,29.57910306897149,-9999,1747225842.455009,-3.698501586914062,-6.206039428710938,-13.32022094726562,101.757080078125,109.7256927490234,13.59653759002686,66883.68279425001,0.1167755126953125,-0.0785369873046875,-1.047378540039062,66883.65411225001,-0.04588945955038071,-0.2352082580327988,0.1761433333158493,66883.66569225,49.901123046875,-55.741455078125,-130.8720550537109,66883.61919425,0.1135485500674268,0.1546835546004701,0.06666597370010782,-0.07057035714387894,-0.01988576166331768,0.1609059870243073,-0.01996661722660065,0.03001067787408829,0.01041692495346069,XArbitraryCorrectedZVertical,0.02879179557675139,0.07898278642137763,0.05911355993314606,0.9947051754009162,0.1537252068519592,-0.06661660224199295,-0.9858655333518982,-3.541133880615234,-6.03692626953125,-13.25198364257812,-1,2,66880.6088115,unknown,2,2025-05-14T21:30:39.391+09:00,null,0,0,0,0,0,0,0,null,66880.677496,0,-0.2061005,101.6864,1747225838.947632,0.0.0.0,192.0.0.2,my_iOS_device,0,1,1747225838.918107,1,0.45,0
2025-05-14T21:30:42.500+09:00,107,1747225841.985687,35.65701705852797,139.701042983209,27.72432,-1,-1,-1,-1,30,29.57910306897149,-9999,1747225842.495083,-3.670528411865234,-6.268989562988281,-13.30569458007812,101.5287475585938,109.4973602294922,13.59670543670654,66883.71646425,0.16925048828125,-0.0460968017578125,-0.910369873046875,66883.68778225001,0.04383563250303268,0.04156928136944771,0.07568676769733429,66883.69601125001,49.89366149902344,-55.61051940917969,-130.6234130859375,66883.67905325,0.1225203942695899,0.1427647893544799,0.0669683620078621,0.06390619277954102,-0.139291450381279,0.05178153514862061,-0.02536895871162415,-0.01186289638280869,-0.05925202369689941,XArbitraryCorrectedZVertical,0.02896602110073927,0.07319245556539342,0.06341496968686165,0.9948781391138845,0.141961395740509,-0.06691831350326538,-0.9876076579093933,-3.583183288574219,-6.332996368408203,-13.1661376953125,-1,2,66880.6088115,unknown,2,2025-05-14T21:30:39.391+09:00,null,0,0,0,0,0,0,0,null,66880.677496,0,-0.2061005,101.6864,1747225838.947632,0.0.0.0,192.0.0.2,my_iOS_device,0,1,1747225838.918107,1,0.45,0
